%time,field.header.seq,field.header.stamp,field.header.frame_id,field.orientation.x,field.orientation.y,field.orientation.z,field.orientation.w,field.orientation_covariance0,field.orientation_covariance1,field.orientation_covariance2,field.orientation_covariance3,field.orientation_covariance4,field.orientation_covariance5,field.orientation_covariance6,field.orientation_covariance7,field.orientation_covariance8,field.angular_velocity.x,field.angular_velocity.y,field.angular_velocity.z,field.angular_velocity_covariance0,field.angular_velocity_covariance1,field.angular_velocity_covariance2,field.angular_velocity_covariance3,field.angular_velocity_covariance4,field.angular_velocity_covariance5,field.angular_velocity_covariance6,field.angular_velocity_covariance7,field.angular_velocity_covariance8,field.linear_acceleration.x,field.linear_acceleration.y,field.linear_acceleration.z,field.linear_acceleration_covariance0,field.linear_acceleration_covariance1,field.linear_acceleration_covariance2,field.linear_acceleration_covariance3,field.linear_acceleration_covariance4,field.linear_acceleration_covariance5,field.linear_acceleration_covariance6,field.linear_acceleration_covariance7,field.linear_acceleration_covariance8
1581120591246131603,8,1581120591245579004,mag,-0.168324704554,0.075598704964,0.192133418026,0.963865332566,0.0,0.0,0.0,0.0,0.0,0.0,0.0,0.0,0.0,-0.000965,-5.6e-05,0.000396,0.0,0.0,0.0,0.0,0.0,0.0,0.0,0.0,0.0,0.009,0.074,-9.713,0.0,0.0,0.0,0.0,0.0,0.0,0.0,0.0,0.0
1581120591270616184,9,1581120591270378112,mag,-0.168282067332,0.0750297303539,0.192549922237,0.963834121011,0.0,0.0,0.0,0.0,0.0,0.0,0.0,0.0,0.0,0.000938,0.000249,-6.8e-05,0.0,0.0,0.0,0.0,0.0,0.0,0.0,0.0,0.0,0.029,0.056,-9.753,0.0,0.0,0.0,0.0,0.0,0.0,0.0,0.0,0.0
1581120591295541870,10,1581120591295331001,mag,-0.168882034372,0.0753337844699,0.193134878164,0.963588396682,0.0,0.0,0.0,0.0,0.0,0.0,0.0,0.0,0.0,-0.000387,-0.000515,-0.000864,0.0,0.0,0.0,0.0,0.0,0.0,0.0,0.0,0.0,0.046,0.051,-9.737,0.0,0.0,0.0,0.0,0.0,0.0,0.0,0.0,0.0
1581120591320514399,11,1581120591320295095,mag,-0.16936380744,0.0752372076181,0.193172520913,0.96350383522,0.0,0.0,0.0,0.0,0.0,0.0,0.0,0.0,0.0,0.00026,0.000364,0.000492,0.0,0.0,0.0,0.0,0.0,0.0,0.0,0.0,0.0,0.017,0.058,-9.744,0.0,0.0,0.0,0.0,0.0,0.0,0.0,0.0,0.0
1581120591345728801,12,1581120591345366954,mag,-0.169357882422,0.0745831901266,0.19407013647,0.963375335756,0.0,0.0,0.0,0.0,0.0,0.0,0.0,0.0,0.0,0.001081,-0.000173,-0.001151,0.0,0.0,0.0,0.0,0.0,0.0,0.0,0.0,0.0,0.018,0.051,-9.714,0.0,0.0,0.0,0.0,0.0,0.0,0.0,0.0,0.0
1581120591370697565,13,1581120591370393991,mag,-0.169469566638,0.0743290694922,0.195514980603,0.963083146863,0.0,0.0,0.0,0.0,0.0,0.0,0.0,0.0,0.0,0.000102,-0.000593,0.000118,0.0,0.0,0.0,0.0,0.0,0.0,0.0,0.0,0.0,0.036,0.065,-9.704,0.0,0.0,0.0,0.0,0.0,0.0,0.0,0.0,0.0
1581120591396194662,14,1581120591395412921,mag,-0.169951087007,0.0742313027148,0.195552120697,0.962998291698,0.0,0.0,0.0,0.0,0.0,0.0,0.0,0.0,0.0,-0.001083,-0.000992,-0.000917,0.0,0.0,0.0,0.0,0.0,0.0,0.0,0.0,0.0,0.042,0.074,-9.752,0.0,0.0,0.0,0.0,0.0,0.0,0.0,0.0,0.0
1581120591421027976,15,1581120591420506000,mag,-0.169951087007,0.0742313027148,0.195552120697,0.962998291698,0.0,0.0,0.0,0.0,0.0,0.0,0.0,0.0,0.0,-0.000168,-0.00096,-0.0009,0.0,0.0,0.0,0.0,0.0,0.0,0.0,0.0,0.0,0.051,0.04,-9.708,0.0,0.0,0.0,0.0,0.0,0.0,0.0,0.0,0.0
1581120591446512562,16,1581120591445456027,mag,-0.170476973674,0.0747031931971,0.195173941721,0.962945567956,0.0,0.0,0.0,0.0,0.0,0.0,0.0,0.0,0.0,-3.5e-05,-0.000302,-0.00075,0.0,0.0,0.0,0.0,0.0,0.0,0.0,0.0,0.0,0.049,0.055,-9.715,0.0,0.0,0.0,0.0,0.0,0.0,0.0,0.0,0.0
1581120591471050663,17,1581120591470419883,mag,-0.170551591616,0.0745326789002,0.196136789542,0.962749912574,0.0,0.0,0.0,0.0,0.0,0.0,0.0,0.0,0.0,-0.000309,-1e-06,-0.000221,0.0,0.0,0.0,0.0,0.0,0.0,0.0,0.0,0.0,0.052,0.043,-9.725,0.0,0.0,0.0,0.0,0.0,0.0,0.0,0.0,0.0
1581120591496556245,18,1581120591495461940,mag,-0.170227196842,0.074944949699,0.197128024227,0.962572853365,0.0,0.0,0.0,0.0,0.0,0.0,0.0,0.0,0.0,-0.000351,9.9e-05,0.000159,0.0,0.0,0.0,0.0,0.0,0.0,0.0,0.0,0.0,0.021,0.065,-9.77,0.0,0.0,0.0,0.0,0.0,0.0,0.0,0.0,0.0
1581120591520932888,19,1581120591520426034,mag,-0.170062242725,0.0739762926697,0.196996397597,0.962703880254,0.0,0.0,0.0,0.0,0.0,0.0,0.0,0.0,0.0,-8.9e-05,-0.000809,0.000149,0.0,0.0,0.0,0.0,0.0,0.0,0.0,0.0,0.0,0.045,0.067,-9.693,0.0,0.0,0.0,0.0,0.0,0.0,0.0,0.0,0.0
1581120591546091029,20,1581120591545389890,mag,-0.169752722578,0.075697628162,0.196193333924,0.96278868813,0.0,0.0,0.0,0.0,0.0,0.0,0.0,0.0,0.0,0.000561,0.001467,-0.000786,0.0,0.0,0.0,0.0,0.0,0.0,0.0,0.0,0.0,0.035,0.058,-9.725,0.0,0.0,0.0,0.0,0.0,0.0,0.0,0.0,0.0
1581120591570761377,21,1581120591570390939,mag,-0.170309610075,0.0754292501698,0.197193763627,0.962506978947,0.0,0.0,0.0,0.0,0.0,0.0,0.0,0.0,0.0,-0.000798,-0.000488,0.001444,0.0,0.0,0.0,0.0,0.0,0.0,0.0,0.0,0.0,0.051,0.059,-9.721,0.0,0.0,0.0,0.0,0.0,0.0,0.0,0.0,0.0
1581120591595950514,22,1581120591595369100,mag,-0.169828335317,0.0755278376189,0.197156024355,0.962592013435,0.0,0.0,0.0,0.0,0.0,0.0,0.0,0.0,0.0,1.5e-05,0.000491,-0.000624,0.0,0.0,0.0,0.0,0.0,0.0,0.0,0.0,0.0,0.026,0.06,-9.724,0.0,0.0,0.0,0.0,0.0,0.0,0.0,0.0,0.0
1581120591621260174,23,1581120591620338916,mag,-0.169903778228,0.075357971548,0.19811851763,0.962394376147,0.0,0.0,0.0,0.0,0.0,0.0,0.0,0.0,0.0,0.000595,0.001052,-0.000111,0.0,0.0,0.0,0.0,0.0,0.0,0.0,0.0,0.0,0.063,0.063,-9.699,0.0,0.0,0.0,0.0,0.0,0.0,0.0,0.0,0.0
1581120591646032707,24,1581120591645315885,mag,-0.170460127856,0.0750884803183,0.199118381914,0.962110666669,0.0,0.0,0.0,0.0,0.0,0.0,0.0,0.0,0.0,-0.0009,0.000163,0.000613,0.0,0.0,0.0,0.0,0.0,0.0,0.0,0.0,0.0,0.05,0.053,-9.727,0.0,0.0,0.0,0.0,0.0,0.0,0.0,0.0,0.0
1581120591670879955,25,1581120591670363903,mag,-0.170535131094,0.0749179826746,0.200080392862,0.961911067265,0.0,0.0,0.0,0.0,0.0,0.0,0.0,0.0,0.0,0.001003,0.00119,-0.000421,0.0,0.0,0.0,0.0,0.0,0.0,0.0,0.0,0.0,0.058,0.055,-9.736,0.0,0.0,0.0,0.0,0.0,0.0,0.0,0.0,0.0
1581120591696026302,26,1581120591695313930,mag,-0.170572568767,0.0748327057479,0.200561323365,0.961810906834,0.0,0.0,0.0,0.0,0.0,0.0,0.0,0.0,0.0,0.000403,-0.000676,-0.000754,0.0,0.0,0.0,0.0,0.0,0.0,0.0,0.0,0.0,0.071,0.073,-9.715,0.0,0.0,0.0,0.0,0.0,0.0,0.0,0.0,0.0
1581120591720660271,27,1581120591720314979,mag,-0.171128099755,0.0745613249457,0.201560339687,0.961524420783,0.0,0.0,0.0,0.0,0.0,0.0,0.0,0.0,0.0,0.000441,-0.000644,0.001078,0.0,0.0,0.0,0.0,0.0,0.0,0.0,0.0,0.0,0.048,0.046,-9.724,0.0,0.0,0.0,0.0,0.0,0.0,0.0,0.0,0.0
1581120591745783735,28,1581120591745282888,mag,-0.171165359025,0.0744757515792,0.202041076682,0.961423520427,0.0,0.0,0.0,0.0,0.0,0.0,0.0,0.0,0.0,0.00109,-0.000544,-0.000127,0.0,0.0,0.0,0.0,0.0,0.0,0.0,0.0,0.0,0.04,0.064,-9.686,0.0,0.0,0.0,0.0,0.0,0.0,0.0,0.0,0.0
1581120591770757110,29,1581120591770312070,mag,-0.171069137611,0.0733370014656,0.202871178561,0.961353378983,0.0,0.0,0.0,0.0,0.0,0.0,0.0,0.0,0.0,0.000364,0.000126,0.000436,0.0,0.0,0.0,0.0,0.0,0.0,0.0,0.0,0.0,0.027,0.041,-9.737,0.0,0.0,0.0,0.0,0.0,0.0,0.0,0.0,0.0
1581120591795744570,30,1581120591795262098,mag,-0.170983767664,0.072853200131,0.202805492246,0.96141920864,0.0,0.0,0.0,0.0,0.0,0.0,0.0,0.0,0.0,-0.000826,-0.000165,-0.001403,0.0,0.0,0.0,0.0,0.0,0.0,0.0,0.0,0.0,0.039,0.072,-9.714,0.0,0.0,0.0,0.0,0.0,0.0,0.0,0.0,0.0
1581120591821134995,31,1581120591820297956,mag,-0.171464455875,0.0727517882825,0.202841893494,0.961333596582,0.0,0.0,0.0,0.0,0.0,0.0,0.0,0.0,0.0,-9.2e-05,-4.3e-05,0.000502,0.0,0.0,0.0,0.0,0.0,0.0,0.0,0.0,0.0,0.033,0.044,-9.727,0.0,0.0,0.0,0.0,0.0,0.0,0.0,0.0,0.0
1581120591845529130,32,1581120591845190048,mag,-0.171464455875,0.0727517882825,0.202841893494,0.961333596582,0.0,0.0,0.0,0.0,0.0,0.0,0.0,0.0,0.0,-0.000195,-0.000198,0.000146,0.0,0.0,0.0,0.0,0.0,0.0,0.0,0.0,0.0,0.041,0.051,-9.73,0.0,0.0,0.0,0.0,0.0,0.0,0.0,0.0,0.0
1581120591871060655,33,1581120591870268106,mag,-0.170898354971,0.0723693805832,0.202739755229,0.961484797941,0.0,0.0,0.0,0.0,0.0,0.0,0.0,0.0,0.0,-0.000621,-0.000827,-0.000256,0.0,0.0,0.0,0.0,0.0,0.0,0.0,0.0,0.0,0.03,0.055,-9.725,0.0,0.0,0.0,0.0,0.0,0.0,0.0,0.0,0.0
1581120591895627235,34,1581120591895181894,mag,-0.17041759123,0.0724707414105,0.202703545198,0.961570126929,0.0,0.0,0.0,0.0,0.0,0.0,0.0,0.0,0.0,0.000937,0.001341,-0.000702,0.0,0.0,0.0,0.0,0.0,0.0,0.0,0.0,0.0,0.043,0.027,-9.729,0.0,0.0,0.0,0.0,0.0,0.0,0.0,0.0,0.0
1581120591920656154,35,1581120591920181035,mag,-0.170453805297,0.0723855235596,0.203184304903,0.961468654965,0.0,0.0,0.0,0.0,0.0,0.0,0.0,0.0,0.0,-0.0001,-0.000909,0.000206,0.0,0.0,0.0,0.0,0.0,0.0,0.0,0.0,0.0,0.016,0.062,-9.692,0.0,0.0,0.0,0.0,0.0,0.0,0.0,0.0,0.0
1581120591945653359,36,1581120591945144891,mag,-0.170898354971,0.0723693805832,0.202739755229,0.961484797941,0.0,0.0,0.0,0.0,0.0,0.0,0.0,0.0,0.0,-0.000806,-0.000472,-0.000227,0.0,0.0,0.0,0.0,0.0,0.0,0.0,0.0,0.0,0.048,0.047,-9.699,0.0,0.0,0.0,0.0,0.0,0.0,0.0,0.0,0.0
1581120591970952981,37,1581120591970163106,mag,-0.170453805297,0.0723855235596,0.203184304903,0.961468654965,0.0,0.0,0.0,0.0,0.0,0.0,0.0,0.0,0.0,-0.000192,0.000901,0.000336,0.0,0.0,0.0,0.0,0.0,0.0,0.0,0.0,0.0,0.039,0.055,-9.736,0.0,0.0,0.0,0.0,0.0,0.0,0.0,0.0,0.0
1581120591995816308,38,1581120591995130062,mag,-0.170439891791,0.0717312918928,0.204080224064,0.961330394399,0.0,0.0,0.0,0.0,0.0,0.0,0.0,0.0,0.0,-0.000204,0.000217,-0.000405,0.0,0.0,0.0,0.0,0.0,0.0,0.0,0.0,0.0,0.035,0.057,-9.722,0.0,0.0,0.0,0.0,0.0,0.0,0.0,0.0,0.0
1581120592020547219,39,1581120592020097970,mag,-0.170956328918,0.0715437736007,0.204596661191,0.961142876107,0.0,0.0,0.0,0.0,0.0,0.0,0.0,0.0,0.0,0.00029,0.000314,0.000844,0.0,0.0,0.0,0.0,0.0,0.0,0.0,0.0,0.0,0.062,0.043,-9.699,0.0,0.0,0.0,0.0,0.0,0.0,0.0,0.0,0.0
1581120592045772985,40,1581120592045046091,mag,-0.171595108462,0.0717535400012,0.205659195444,0.960786575457,0.0,0.0,0.0,0.0,0.0,0.0,0.0,0.0,0.0,0.001086,-0.000135,-3.7e-05,0.0,0.0,0.0,0.0,0.0,0.0,0.0,0.0,0.0,0.037,0.048,-9.738,0.0,0.0,0.0,0.0,0.0,0.0,0.0,0.0,0.0
1581120592070780093,41,1581120592070086956,mag,-0.171222285741,0.0715996078426,0.207064369481,0.960562737105,0.0,0.0,0.0,0.0,0.0,0.0,0.0,0.0,0.0,0.000755,0.000729,-9.1e-05,0.0,0.0,0.0,0.0,0.0,0.0,0.0,0.0,0.0,0.032,0.053,-9.721,0.0,0.0,0.0,0.0,0.0,0.0,0.0,0.0,0.0
1581120592095478745,42,1581120592094957113,mag,-0.17143368273,0.0724807426308,0.207675389543,0.960327010425,0.0,0.0,0.0,0.0,0.0,0.0,0.0,0.0,0.0,-0.000836,-0.000113,-0.000124,0.0,0.0,0.0,0.0,0.0,0.0,0.0,0.0,0.0,0.049,0.049,-9.704,0.0,0.0,0.0,0.0,0.0,0.0,0.0,0.0,0.0
1581120592120575593,43,1581120592120050907,mag,-0.171949991744,0.0722909299244,0.208191698557,0.960137197718,0.0,0.0,0.0,0.0,0.0,0.0,0.0,0.0,0.0,0.000173,-0.001498,-0.000907,0.0,0.0,0.0,0.0,0.0,0.0,0.0,0.0,0.0,0.034,0.056,-9.728,0.0,0.0,0.0,0.0,0.0,0.0,0.0,0.0,0.0
1581120592145365795,44,1581120592144923925,mag,-0.172058234654,0.0720329237062,0.209631669597,0.959823830133,0.0,0.0,0.0,0.0,0.0,0.0,0.0,0.0,0.0,0.000392,-0.000118,-0.000229,0.0,0.0,0.0,0.0,0.0,0.0,0.0,0.0,0.0,0.037,0.038,-9.714,0.0,0.0,0.0,0.0,0.0,0.0,0.0,0.0,0.0
1581120592171973542,45,1581120592170922994,mag,-0.171098324955,0.0722425193244,0.20955953187,0.959995408427,0.0,0.0,0.0,0.0,0.0,0.0,0.0,0.0,0.0,0.000456,7.5e-05,-0.000923,0.0,0.0,0.0,0.0,0.0,0.0,0.0,0.0,0.0,0.03,0.043,-9.691,0.0,0.0,0.0,0.0,0.0,0.0,0.0,0.0,0.0
1581120592195682293,46,1581120592195081949,mag,-0.171134424826,0.0721569611352,0.210039503359,0.959890508666,0.0,0.0,0.0,0.0,0.0,0.0,0.0,0.0,0.0,0.0002,5.6e-05,0.000107,0.0,0.0,0.0,0.0,0.0,0.0,0.0,0.0,0.0,0.051,0.051,-9.713,0.0,0.0,0.0,0.0,0.0,0.0,0.0,0.0,0.0
1581120592221810179,47,1581120592220896005,mag,-0.171775750985,0.0723633222736,0.211100326845,0.959527640545,0.0,0.0,0.0,0.0,0.0,0.0,0.0,0.0,0.0,-0.000157,-0.000756,-0.000282,0.0,0.0,0.0,0.0,0.0,0.0,0.0,0.0,0.0,0.024,0.07,-9.734,0.0,0.0,0.0,0.0,0.0,0.0,0.0,0.0,0.0
1581120592245286777,48,1581120592244851112,mag,-0.17188410268,0.072105577335,0.212539380279,0.959209910705,0.0,0.0,0.0,0.0,0.0,0.0,0.0,0.0,0.0,0.000251,0.000623,0.000849,0.0,0.0,0.0,0.0,0.0,0.0,0.0,0.0,0.0,0.032,0.028,-9.715,0.0,0.0,0.0,0.0,0.0,0.0,0.0,0.0,0.0
1581120592271540798,49,1581120592270780086,mag,-0.171584470027,0.0717831016014,0.214900873686,0.958761477355,0.0,0.0,0.0,0.0,0.0,0.0,0.0,0.0,0.0,-0.000497,-0.000707,-0.000483,0.0,0.0,0.0,0.0,0.0,0.0,0.0,0.0,0.0,0.035,0.07,-9.735,0.0,0.0,0.0,0.0,0.0,0.0,0.0,0.0,0.0
1581120592296704081,50,1581120592295751094,mag,-0.172227226139,0.0719861117161,0.215959990034,0.958392959595,0.0,0.0,0.0,0.0,0.0,0.0,0.0,0.0,0.0,0.001092,0.001495,-0.000745,0.0,0.0,0.0,0.0,0.0,0.0,0.0,0.0,0.0,0.05,0.056,-9.712,0.0,0.0,0.0,0.0,0.0,0.0,0.0,0.0,0.0
1581120592321509140,51,1581120592320753097,mag,-0.172263197665,0.0718999891083,0.216439159499,0.958284859805,0.0,0.0,0.0,0.0,0.0,0.0,0.0,0.0,0.0,-4e-05,0.000767,3.8e-05,0.0,0.0,0.0,0.0,0.0,0.0,0.0,0.0,0.0,0.051,0.056,-9.72,0.0,0.0,0.0,0.0,0.0,0.0,0.0,0.0,0.0
1581120592346446669,52,1581120592345745086,mag,-0.17294250712,0.0720149007601,0.217976872199,0.957805213228,0.0,0.0,0.0,0.0,0.0,0.0,0.0,0.0,0.0,0.000605,-9.6e-05,0.000264,0.0,0.0,0.0,0.0,0.0,0.0,0.0,0.0,0.0,0.04,0.047,-9.71,0.0,0.0,0.0,0.0,0.0,0.0,0.0,0.0,0.0
1581120592371193605,53,1581120592370733976,mag,-0.17294250712,0.0720149007601,0.217976872199,0.957805213228,0.0,0.0,0.0,0.0,0.0,0.0,0.0,0.0,0.0,-0.000159,-0.00101,0.00054,0.0,0.0,0.0,0.0,0.0,0.0,0.0,0.0,0.0,0.045,0.079,-9.757,0.0,0.0,0.0,0.0,0.0,0.0,0.0,0.0,0.0
1581120592396143875,54,1581120592395652055,mag,-0.172885556483,0.0714461325554,0.218391045426,0.957763742152,0.0,0.0,0.0,0.0,0.0,0.0,0.0,0.0,0.0,0.000458,-0.001103,6.2e-05,0.0,0.0,0.0,0.0,0.0,0.0,0.0,0.0,0.0,0.021,0.036,-9.719,0.0,0.0,0.0,0.0,0.0,0.0,0.0,0.0,0.0
1581120592421157872,55,1581120592420670986,mag,-0.173014435538,0.0718419222743,0.218934568264,0.957586757489,0.0,0.0,0.0,0.0,0.0,0.0,0.0,0.0,0.0,-0.000552,0.000525,-0.000308,0.0,0.0,0.0,0.0,0.0,0.0,0.0,0.0,0.0,0.017,0.056,-9.729,0.0,0.0,0.0,0.0,0.0,0.0,0.0,0.0,0.0
1581120592446142212,56,1581120592445604085,mag,-0.173529051805,0.0716456904479,0.219449184531,0.957390525663,0.0,0.0,0.0,0.0,0.0,0.0,0.0,0.0,0.0,-0.000557,-0.000337,-0.00022,0.0,0.0,0.0,0.0,0.0,0.0,0.0,0.0,0.0,0.031,0.047,-9.733,0.0,0.0,0.0,0.0,0.0,0.0,0.0,0.0,0.0
1581120592471357113,57,1581120592470649957,mag,-0.173028102881,0.0711002187807,0.220306134852,0.957325044825,0.0,0.0,0.0,0.0,0.0,0.0,0.0,0.0,0.0,-0.000406,-0.001159,0.000456,0.0,0.0,0.0,0.0,0.0,0.0,0.0,0.0,0.0,0.048,0.055,-9.726,0.0,0.0,0.0,0.0,0.0,0.0,0.0,0.0,0.0
1581120592496276515,58,1581120592495707988,mag,-0.173028102881,0.0711002187807,0.220306134852,0.957325044825,0.0,0.0,0.0,0.0,0.0,0.0,0.0,0.0,0.0,2.1e-05,-0.000823,0.000679,0.0,0.0,0.0,0.0,0.0,0.0,0.0,0.0,0.0,0.015,0.036,-9.704,0.0,0.0,0.0,0.0,0.0,0.0,0.0,0.0,0.0
1581120592521565921,59,1581120592520603895,mag,-0.17254941875,0.071210362956,0.220270557206,0.957411439207,0.0,0.0,0.0,0.0,0.0,0.0,0.0,0.0,0.0,0.000298,-8.2e-05,0.000584,0.0,0.0,0.0,0.0,0.0,0.0,0.0,0.0,0.0,0.061,0.05,-9.709,0.0,0.0,0.0,0.0,0.0,0.0,0.0,0.0,0.0
1581120592546066807,60,1581120592545619964,mag,-0.172141925924,0.0711483830057,0.221192311809,0.9572768806,0.0,0.0,0.0,0.0,0.0,0.0,0.0,0.0,0.0,0.000417,-8.9e-05,-0.000137,0.0,0.0,0.0,0.0,0.0,0.0,0.0,0.0,0.0,0.028,0.051,-9.741,0.0,0.0,0.0,0.0,0.0,0.0,0.0,0.0,0.0
1581120592571768729,61,1581120592570627927,mag,-0.172141925924,0.0711483830057,0.221192311809,0.9572768806,0.0,0.0,0.0,0.0,0.0,0.0,0.0,0.0,0.0,-0.0002,0.000721,-0.000523,0.0,0.0,0.0,0.0,0.0,0.0,0.0,0.0,0.0,0.037,0.066,-9.709,0.0,0.0,0.0,0.0,0.0,0.0,0.0,0.0,0.0
1581120592596445884,62,1581120592595633983,mag,-0.172691494283,0.0708651219279,0.222184938267,0.956968983564,0.0,0.0,0.0,0.0,0.0,0.0,0.0,0.0,0.0,-0.001329,0.000509,0.00071,0.0,0.0,0.0,0.0,0.0,0.0,0.0,0.0,0.0,0.026,0.033,-9.718,0.0,0.0,0.0,0.0,0.0,0.0,0.0,0.0,0.0
1581120592621178192,63,1581120592620630025,mag,-0.172691494283,0.0708651219279,0.222184938267,0.956968983564,0.0,0.0,0.0,0.0,0.0,0.0,0.0,0.0,0.0,-0.000858,0.00101,2.3e-05,0.0,0.0,0.0,0.0,0.0,0.0,0.0,0.0,0.0,0.052,0.057,-9.727,0.0,0.0,0.0,0.0,0.0,0.0,0.0,0.0,0.0
1581120592646061408,64,1581120592645546913,mag,-0.173110163413,0.0701855442621,0.222634303749,0.956838976785,0.0,0.0,0.0,0.0,0.0,0.0,0.0,0.0,0.0,-0.000231,8.8e-05,-0.000654,0.0,0.0,0.0,0.0,0.0,0.0,0.0,0.0,0.0,0.05,0.051,-9.724,0.0,0.0,0.0,0.0,0.0,0.0,0.0,0.0,0.0
1581120592671459741,65,1581120592670504093,mag,-0.173084588143,0.0695305943979,0.223526590306,0.956683377725,0.0,0.0,0.0,0.0,0.0,0.0,0.0,0.0,0.0,0.001034,-0.000991,0.000272,0.0,0.0,0.0,0.0,0.0,0.0,0.0,0.0,0.0,0.029,0.063,-9.741,0.0,0.0,0.0,0.0,0.0,0.0,0.0,0.0,0.0
1581120592696201758,66,1581120592695485115,mag,-0.173057832891,0.0688757490121,0.224418732243,0.95652671175,0.0,0.0,0.0,0.0,0.0,0.0,0.0,0.0,0.0,7.8e-05,-1.2e-05,-9.6e-05,0.0,0.0,0.0,0.0,0.0,0.0,0.0,0.0,0.0,0.04,0.046,-9.759,0.0,0.0,0.0,0.0,0.0,0.0,0.0,0.0,0.0
1581120592720980216,67,1581120592720503091,mag,-0.173666841113,0.0691584000553,0.22499597069,0.956260297813,0.0,0.0,0.0,0.0,0.0,0.0,0.0,0.0,0.0,-0.000682,6.6e-05,0.000436,0.0,0.0,0.0,0.0,0.0,0.0,0.0,0.0,0.0,0.047,0.085,-9.695,0.0,0.0,0.0,0.0,0.0,0.0,0.0,0.0,0.0
1581120592746282620,68,1581120592745439052,mag,-0.173570434667,0.0686767544121,0.224931334019,0.95632771715,0.0,0.0,0.0,0.0,0.0,0.0,0.0,0.0,0.0,-6.3e-05,-0.000381,-0.000446,0.0,0.0,0.0,0.0,0.0,0.0,0.0,0.0,0.0,0.042,0.048,-9.72,0.0,0.0,0.0,0.0,0.0,0.0,0.0,0.0,0.0
1581120592770916788,69,1581120592770423889,mag,-0.173536074594,0.0687635310412,0.224453142064,0.956440063272,0.0,0.0,0.0,0.0,0.0,0.0,0.0,0.0,0.0,0.000845,-0.000123,-0.000935,0.0,0.0,0.0,0.0,0.0,0.0,0.0,0.0,0.0,0.039,0.054,-9.71,0.0,0.0,0.0,0.0,0.0,0.0,0.0,0.0,0.0
1581120592796066200,70,1581120592795480012,mag,-0.173639024624,0.0685031496679,0.225887549111,0.95610230769,0.0,0.0,0.0,0.0,0.0,0.0,0.0,0.0,0.0,0.00073,0.000684,5e-05,0.0,0.0,0.0,0.0,0.0,0.0,0.0,0.0,0.0,0.033,0.067,-9.727,0.0,0.0,0.0,0.0,0.0,0.0,0.0,0.0,0.0
1581120592821128971,71,1581120592820468902,mag,-0.173639024624,0.0685031496679,0.225887549111,0.95610230769,0.0,0.0,0.0,0.0,0.0,0.0,0.0,0.0,0.0,0.000753,0.000393,0.00146,0.0,0.0,0.0,0.0,0.0,0.0,0.0,0.0,0.0,0.033,0.051,-9.736,0.0,0.0,0.0,0.0,0.0,0.0,0.0,0.0,0.0
1581120592845882980,72,1581120592845393896,mag,-0.173160951786,0.0686160848749,0.225853269302,0.956189007686,0.0,0.0,0.0,0.0,0.0,0.0,0.0,0.0,0.0,-0.000207,-0.000477,-0.001258,0.0,0.0,0.0,0.0,0.0,0.0,0.0,0.0,0.0,0.038,0.061,-9.702,0.0,0.0,0.0,0.0,0.0,0.0,0.0,0.0,0.0
1581120592870854336,73,1581120592870383977,mag,-0.173195238181,0.0685294958256,0.226331335554,0.956075961532,0.0,0.0,0.0,0.0,0.0,0.0,0.0,0.0,0.0,1.8e-05,-0.000486,0.000127,0.0,0.0,0.0,0.0,0.0,0.0,0.0,0.0,0.0,0.059,0.047,-9.743,0.0,0.0,0.0,0.0,0.0,0.0,0.0,0.0,0.0
1581120592896298372,74,1581120592895353078,mag,-0.173292400733,0.0690110285249,0.226395630265,0.956008493888,0.0,0.0,0.0,0.0,0.0,0.0,0.0,0.0,0.0,-2.8e-05,-0.001236,0.000572,0.0,0.0,0.0,0.0,0.0,0.0,0.0,0.0,0.0,-0.001,0.046,-9.696,0.0,0.0,0.0,0.0,0.0,0.0,0.0,0.0,0.0
1581120592920781783,75,1581120592920264959,mag,-0.173263681068,0.0683562663515,0.22728729819,0.955849152196,0.0,0.0,0.0,0.0,0.0,0.0,0.0,0.0,0.0,-0.001226,0.001119,0.000656,0.0,0.0,0.0,0.0,0.0,0.0,0.0,0.0,0.0,0.007,0.053,-9.739,0.0,0.0,0.0,0.0,0.0,0.0,0.0,0.0,0.0
1581120592946380150,76,1581120592945172071,mag,-0.173263681068,0.0683562663515,0.22728729819,0.955849152196,0.0,0.0,0.0,0.0,0.0,0.0,0.0,0.0,0.0,-0.000449,-0.001188,-0.000171,0.0,0.0,0.0,0.0,0.0,0.0,0.0,0.0,0.0,0.032,0.077,-9.714,0.0,0.0,0.0,0.0,0.0,0.0,0.0,0.0,0.0
1581120592970840835,77,1581120592970346927,mag,-0.173229481279,0.0684428896439,0.226809345223,0.95596267636,0.0,0.0,0.0,0.0,0.0,0.0,0.0,0.0,0.0,3.4e-05,-0.000396,-0.000544,0.0,0.0,0.0,0.0,0.0,0.0,0.0,0.0,0.0,0.027,0.067,-9.7,0.0,0.0,0.0,0.0,0.0,0.0,0.0,0.0,0.0
1581120592995724555,78,1581120592995266914,mag,-0.173395722283,0.0687510123839,0.227829387773,0.955667825061,0.0,0.0,0.0,0.0,0.0,0.0,0.0,0.0,0.0,-0.000189,-0.000113,0.001913,0.0,0.0,0.0,0.0,0.0,0.0,0.0,0.0,0.0,0.016,0.059,-9.722,0.0,0.0,0.0,0.0,0.0,0.0,0.0,0.0,0.0
1581120593020910525,79,1581120593020359992,mag,-0.173135569872,0.0672202426819,0.228114543078,0.955755862475,0.0,0.0,0.0,0.0,0.0,0.0,0.0,0.0,0.0,0.000381,-0.002165,-0.000504,0.0,0.0,0.0,0.0,0.0,0.0,0.0,0.0,0.0,0.005,0.052,-9.75,0.0,0.0,0.0,0.0,0.0,0.0,0.0,0.0,0.0
1581120593045756512,80,1581120593045288085,mag,-0.173137228102,0.0664792235388,0.229483689315,0.955479591316,0.0,0.0,0.0,0.0,0.0,0.0,0.0,0.0,0.0,-0.000729,2.9e-05,-0.000328,0.0,0.0,0.0,0.0,0.0,0.0,0.0,0.0,0.0,0.028,0.042,-9.69,0.0,0.0,0.0,0.0,0.0,0.0,0.0,0.0,0.0
1581120593071348770,81,1581120593070267915,mag,-0.172971880364,0.0654302155161,0.229832834162,0.955498029219,0.0,0.0,0.0,0.0,0.0,0.0,0.0,0.0,0.0,-0.000654,-0.000506,0.000123,0.0,0.0,0.0,0.0,0.0,0.0,0.0,0.0,0.0,0.059,0.044,-9.692,0.0,0.0,0.0,0.0,0.0,0.0,0.0,0.0,0.0
1581120593096102407,82,1581120593095257043,mag,-0.173681223891,0.0661908252895,0.230472178226,0.955162908712,0.0,0.0,0.0,0.0,0.0,0.0,0.0,0.0,0.0,-0.000403,3e-06,0.000602,0.0,0.0,0.0,0.0,0.0,0.0,0.0,0.0,0.0,0.03,0.045,-9.731,0.0,0.0,0.0,0.0,0.0,0.0,0.0,0.0,0.0
1581120593120996074,83,1581120593120184898,mag,-0.173302884934,0.066046173172,0.231871668669,0.954902896818,0.0,0.0,0.0,0.0,0.0,0.0,0.0,0.0,0.0,0.00031,0.000571,0.0004,0.0,0.0,0.0,0.0,0.0,0.0,0.0,0.0,0.0,0.05,0.062,-9.709,0.0,0.0,0.0,0.0,0.0,0.0,0.0,0.0,0.0
1581120593145675163,84,1581120593145164012,mag,-0.1737803147,0.0659302290867,0.23190466277,0.954816126016,0.0,0.0,0.0,0.0,0.0,0.0,0.0,0.0,0.0,-0.000305,-0.000398,0.000512,0.0,0.0,0.0,0.0,0.0,0.0,0.0,0.0,0.0,0.029,0.054,-9.744,0.0,0.0,0.0,0.0,0.0,0.0,0.0,0.0,0.0
1581120593170962250,85,1581120593170180082,mag,-0.1737803147,0.0659302290867,0.23190466277,0.954816126016,0.0,0.0,0.0,0.0,0.0,0.0,0.0,0.0,0.0,-0.001385,0.000121,-0.00115,0.0,0.0,0.0,0.0,0.0,0.0,0.0,0.0,0.0,0.042,0.053,-9.73,0.0,0.0,0.0,0.0,0.0,0.0,0.0,0.0,0.0
1581120593196019432,86,1581120593195136070,mag,-0.173946785465,0.0662372746733,0.232923598805,0.954516493514,0.0,0.0,0.0,0.0,0.0,0.0,0.0,0.0,0.0,-0.00091,0.000232,0.000172,0.0,0.0,0.0,0.0,0.0,0.0,0.0,0.0,0.0,0.054,0.049,-9.709,0.0,0.0,0.0,0.0,0.0,0.0,0.0,0.0,0.0
1581120593220714853,87,1581120593220149993,mag,-0.173979882358,0.0661502930046,0.233400827916,0.954399912405,0.0,0.0,0.0,0.0,0.0,0.0,0.0,0.0,0.0,-0.000573,0.000522,-0.000193,0.0,0.0,0.0,0.0,0.0,0.0,0.0,0.0,0.0,0.067,0.054,-9.753,0.0,0.0,0.0,0.0,0.0,0.0,0.0,0.0,0.0
1581120593245541172,88,1581120593245080947,mag,-0.174080706718,0.0666310849307,0.233464971952,0.954332391225,0.0,0.0,0.0,0.0,0.0,0.0,0.0,0.0,0.0,-0.000307,-0.00024,0.001221,0.0,0.0,0.0,0.0,0.0,0.0,0.0,0.0,0.0,0.048,0.059,-9.721,0.0,0.0,0.0,0.0,0.0,0.0,0.0,0.0,0.0
1581120593270915284,89,1581120593270147085,mag,-0.173872727262,0.0675355678474,0.234513426119,0.954049618605,0.0,0.0,0.0,0.0,0.0,0.0,0.0,0.0,0.0,9e-05,0.000769,0.000166,0.0,0.0,0.0,0.0,0.0,0.0,0.0,0.0,0.0,0.032,0.033,-9.728,0.0,0.0,0.0,0.0,0.0,0.0,0.0,0.0,0.0
1581120593295533173,90,1581120593295074939,mag,-0.173292907543,0.0664314923289,0.235783757278,0.953919516954,0.0,0.0,0.0,0.0,0.0,0.0,0.0,0.0,0.0,0.001256,0.000892,0.000433,0.0,0.0,0.0,0.0,0.0,0.0,0.0,0.0,0.0,0.052,0.028,-9.758,0.0,0.0,0.0,0.0,0.0,0.0,0.0,0.0,0.0
1581120593321115340,91,1581120593320131063,mag,-0.172984953892,0.0668570415497,0.236767527488,0.953701986812,0.0,0.0,0.0,0.0,0.0,0.0,0.0,0.0,0.0,0.000759,-7.9e-05,-0.000419,0.0,0.0,0.0,0.0,0.0,0.0,0.0,0.0,0.0,0.043,0.063,-9.704,0.0,0.0,0.0,0.0,0.0,0.0,0.0,0.0,0.0
1581120593345594482,92,1581120593345046997,mag,-0.173495130883,0.0666519102034,0.237277704479,0.953496855466,0.0,0.0,0.0,0.0,0.0,0.0,0.0,0.0,0.0,0.000758,0.000214,-0.000212,0.0,0.0,0.0,0.0,0.0,0.0,0.0,0.0,0.0,0.048,0.036,-9.694,0.0,0.0,0.0,0.0,0.0,0.0,0.0,0.0,0.0
1581120593371417697,93,1581120593370862960,mag,-0.173495130883,0.0666519102034,0.237277704479,0.953496855466,0.0,0.0,0.0,0.0,0.0,0.0,0.0,0.0,0.0,-0.000451,-0.000409,0.000225,0.0,0.0,0.0,0.0,0.0,0.0,0.0,0.0,0.0,0.039,0.057,-9.75,0.0,0.0,0.0,0.0,0.0,0.0,0.0,0.0,0.0
1581120593395540554,94,1581120593394999980,mag,-0.173085044809,0.066597489002,0.238197813568,0.95334576274,0.0,0.0,0.0,0.0,0.0,0.0,0.0,0.0,0.0,0.000653,0.000171,0.000484,0.0,0.0,0.0,0.0,0.0,0.0,0.0,0.0,0.0,0.049,0.053,-9.716,0.0,0.0,0.0,0.0,0.0,0.0,0.0,0.0,0.0
1581120593421314998,95,1581120593420830965,mag,-0.173731775968,0.0667849956639,0.239247360334,0.952952115768,0.0,0.0,0.0,0.0,0.0,0.0,0.0,0.0,0.0,-0.000326,6.6e-05,0.000361,0.0,0.0,0.0,0.0,0.0,0.0,0.0,0.0,0.0,0.034,0.044,-9.687,0.0,0.0,0.0,0.0,0.0,0.0,0.0,0.0,0.0
1581120593446455361,96,1581120593445841073,mag,-0.173590093662,0.0656510042591,0.24007399331,0.952848835209,0.0,0.0,0.0,0.0,0.0,0.0,0.0,0.0,0.0,-0.000335,0.00031,0.000519,0.0,0.0,0.0,0.0,0.0,0.0,0.0,0.0,0.0,0.019,0.057,-9.692,0.0,0.0,0.0,0.0,0.0,0.0,0.0,0.0,0.0
1581120593471489259,97,1581120593470849990,mag,-0.174131940276,0.0653568598283,0.241059430511,0.95252133793,0.0,0.0,0.0,0.0,0.0,0.0,0.0,0.0,0.0,-0.00041,-0.000278,0.001394,0.0,0.0,0.0,0.0,0.0,0.0,0.0,0.0,0.0,0.024,0.062,-9.742,0.0,0.0,0.0,0.0,0.0,0.0,0.0,0.0,0.0
1581120593496345983,98,1581120593495805978,mag,-0.174164596938,0.0652697856921,0.241535661027,0.952400689154,0.0,0.0,0.0,0.0,0.0,0.0,0.0,0.0,0.0,0.000352,0.000188,0.000446,0.0,0.0,0.0,0.0,0.0,0.0,0.0,0.0,0.0,0.034,0.058,-9.722,0.0,0.0,0.0,0.0,0.0,0.0,0.0,0.0,0.0
1581120593521289491,99,1581120593520781993,mag,-0.174092028679,0.0647027984845,0.241948537345,0.95234784543,0.0,0.0,0.0,0.0,0.0,0.0,0.0,0.0,0.0,5.7e-05,-0.001067,-0.001341,0.0,0.0,0.0,0.0,0.0,0.0,0.0,0.0,0.0,0.048,0.05,-9.746,0.0,0.0,0.0,0.0,0.0,0.0,0.0,0.0,0.0
1581120593546425673,100,1581120593545742034,mag,-0.174188886987,0.0644415877488,0.243376786385,0.951983851369,0.0,0.0,0.0,0.0,0.0,0.0,0.0,0.0,0.0,0.00077,0.000162,-0.000612,0.0,0.0,0.0,0.0,0.0,0.0,0.0,0.0,0.0,0.038,0.038,-9.716,0.0,0.0,0.0,0.0,0.0,0.0,0.0,0.0,0.0
1581120593571491845,101,1581120593570805072,mag,-0.173957439831,0.0654358212402,0.243946314679,0.951812564521,0.0,0.0,0.0,0.0,0.0,0.0,0.0,0.0,0.0,0.000525,-0.000349,-9.6e-05,0.0,0.0,0.0,0.0,0.0,0.0,0.0,0.0,0.0,0.077,0.071,-9.729,0.0,0.0,0.0,0.0,0.0,0.0,0.0,0.0,0.0
1581120593596807828,102,1581120593595809936,mag,-0.174465959463,0.0652266150857,0.244454834311,0.951603358367,0.0,0.0,0.0,0.0,0.0,0.0,0.0,0.0,0.0,-0.000497,0.000401,-0.000506,0.0,0.0,0.0,0.0,0.0,0.0,0.0,0.0,0.0,0.031,0.058,-9.729,0.0,0.0,0.0,0.0,0.0,0.0,0.0,0.0,0.0
1581120593621245452,103,1581120593620757102,mag,-0.17511349496,0.0654088670062,0.245501982994,0.951202249969,0.0,0.0,0.0,0.0,0.0,0.0,0.0,0.0,0.0,-0.001143,4.7e-05,-0.000987,0.0,0.0,0.0,0.0,0.0,0.0,0.0,0.0,0.0,0.045,0.044,-9.74,0.0,0.0,0.0,0.0,0.0,0.0,0.0,0.0,0.0
1581120593646422771,104,1581120593645674943,mag,-0.17511349496,0.0654088670062,0.245501982994,0.951202249969,0.0,0.0,0.0,0.0,0.0,0.0,0.0,0.0,0.0,0.000664,0.000252,0.000202,0.0,0.0,0.0,0.0,0.0,0.0,0.0,0.0,0.0,0.037,0.044,-9.722,0.0,0.0,0.0,0.0,0.0,0.0,0.0,0.0,0.0
1581120593671390989,105,1581120593670648097,mag,-0.175080768639,0.0654964155739,0.245026351201,0.951324882055,0.0,0.0,0.0,0.0,0.0,0.0,0.0,0.0,0.0,-0.000267,0.000168,-2.3e-05,0.0,0.0,0.0,0.0,0.0,0.0,0.0,0.0,0.0,0.01,0.064,-9.729,0.0,0.0,0.0,0.0,0.0,0.0,0.0,0.0,0.0
1581120593696336726,106,1581120593695607900,mag,-0.175039199037,0.0648418937674,0.245914415487,0.951148204997,0.0,0.0,0.0,0.0,0.0,0.0,0.0,0.0,0.0,-0.001016,-0.000328,-0.000451,0.0,0.0,0.0,0.0,0.0,0.0,0.0,0.0,0.0,0.041,0.038,-9.68,0.0,0.0,0.0,0.0,0.0,0.0,0.0,0.0,0.0
1581120593721102172,107,1581120593720612049,mag,-0.17517881626,0.065233720836,0.246453062334,0.950956272426,0.0,0.0,0.0,0.0,0.0,0.0,0.0,0.0,0.0,-0.000498,-0.000903,0.000143,0.0,0.0,0.0,0.0,0.0,0.0,0.0,0.0,0.0,0.046,0.013,-9.705,0.0,0.0,0.0,0.0,0.0,0.0,0.0,0.0,0.0
1581120593746235383,108,1581120593745596885,mag,-0.174660853918,0.0647029244729,0.247308540058,0.950865712752,0.0,0.0,0.0,0.0,0.0,0.0,0.0,0.0,0.0,-0.00123,0.000392,-0.00081,0.0,0.0,0.0,0.0,0.0,0.0,0.0,0.0,0.0,0.046,0.042,-9.711,0.0,0.0,0.0,0.0,0.0,0.0,0.0,0.0,0.0
1581120593771116230,109,1581120593770610094,mag,-0.174152964192,0.0649136552426,0.246800650332,0.951076443522,0.0,0.0,0.0,0.0,0.0,0.0,0.0,0.0,0.0,-0.000569,-0.000349,-0.000179,0.0,0.0,0.0,0.0,0.0,0.0,0.0,0.0,0.0,0.036,0.048,-9.721,0.0,0.0,0.0,0.0,0.0,0.0,0.0,0.0,0.0
1581120593796050456,110,1581120593795598983,mag,-0.173612280346,0.0652106923051,0.245816876029,0.951409693655,0.0,0.0,0.0,0.0,0.0,0.0,0.0,0.0,0.0,-6.9e-05,0.00149,0.000211,0.0,0.0,0.0,0.0,0.0,0.0,0.0,0.0,0.0,0.033,0.06,-9.735,0.0,0.0,0.0,0.0,0.0,0.0,0.0,0.0,0.0
1581120593820975445,111,1581120593820471048,mag,-0.174152964192,0.0649136552426,0.246800650332,0.951076443522,0.0,0.0,0.0,0.0,0.0,0.0,0.0,0.0,0.0,0.000496,-0.000148,-0.000442,0.0,0.0,0.0,0.0,0.0,0.0,0.0,0.0,0.0,0.035,0.048,-9.71,0.0,0.0,0.0,0.0,0.0,0.0,0.0,0.0,0.0
1581120593845994742,112,1581120593845549106,mag,-0.174152964192,0.0649136552426,0.246800650332,0.951076443522,0.0,0.0,0.0,0.0,0.0,0.0,0.0,0.0,0.0,-4.8e-05,-0.000187,1.8e-05,0.0,0.0,0.0,0.0,0.0,0.0,0.0,0.0,0.0,0.029,0.063,-9.736,0.0,0.0,0.0,0.0,0.0,0.0,0.0,0.0,0.0
1581120593870982251,113,1581120593870551109,mag,-0.174045393999,0.064434275084,0.246737998897,0.951144986278,0.0,0.0,0.0,0.0,0.0,0.0,0.0,0.0,0.0,-0.000572,-0.000388,-4e-06,0.0,0.0,0.0,0.0,0.0,0.0,0.0,0.0,0.0,0.041,0.045,-9.718,0.0,0.0,0.0,0.0,0.0,0.0,0.0,0.0,0.0
1581120593896265603,114,1581120593895481109,mag,-0.173494169346,0.0639914693781,0.247118896725,0.951176700688,0.0,0.0,0.0,0.0,0.0,0.0,0.0,0.0,0.0,0.00028,0.000202,0.000106,0.0,0.0,0.0,0.0,0.0,0.0,0.0,0.0,0.0,0.036,0.044,-9.695,0.0,0.0,0.0,0.0,0.0,0.0,0.0,0.0,0.0
1581120593921058471,115,1581120593920449972,mag,-0.173526143393,0.0639047142981,0.247594454166,0.951053022347,0.0,0.0,0.0,0.0,0.0,0.0,0.0,0.0,0.0,-0.000743,-0.000607,-0.000638,0.0,0.0,0.0,0.0,0.0,0.0,0.0,0.0,0.0,0.029,0.056,-9.719,0.0,0.0,0.0,0.0,0.0,0.0,0.0,0.0,0.0
1581120593945956780,116,1581120593945455074,mag,-0.173526143393,0.0639047142981,0.247594454166,0.951053022347,0.0,0.0,0.0,0.0,0.0,0.0,0.0,0.0,0.0,0.000382,-0.000262,0.001083,0.0,0.0,0.0,0.0,0.0,0.0,0.0,0.0,0.0,0.036,0.05,-9.731,0.0,0.0,0.0,0.0,0.0,0.0,0.0,0.0,0.0
1581120593970964594,117,1581120593970433950,mag,-0.173190988852,0.0644212669127,0.248100141055,0.950947475815,0.0,0.0,0.0,0.0,0.0,0.0,0.0,0.0,0.0,-8e-06,-0.000478,-0.000495,0.0,0.0,0.0,0.0,0.0,0.0,0.0,0.0,0.0,0.052,0.053,-9.713,0.0,0.0,0.0,0.0,0.0,0.0,0.0,0.0,0.0
1581120593996102430,118,1581120593995417118,mag,-0.172888823658,0.0648517641041,0.249080570318,0.950716873121,0.0,0.0,0.0,0.0,0.0,0.0,0.0,0.0,0.0,0.000229,-0.001065,-0.000843,0.0,0.0,0.0,0.0,0.0,0.0,0.0,0.0,0.0,0.042,0.061,-9.712,0.0,0.0,0.0,0.0,0.0,0.0,0.0,0.0,0.0
1581120594020905205,119,1581120594020425081,mag,-0.172445910226,0.0648900814374,0.249523483751,0.950678555788,0.0,0.0,0.0,0.0,0.0,0.0,0.0,0.0,0.0,0.000923,-0.000455,-1e-05,0.0,0.0,0.0,0.0,0.0,0.0,0.0,0.0,0.0,0.038,0.049,-9.714,0.0,0.0,0.0,0.0,0.0,0.0,0.0,0.0,0.0
1581120594046110057,120,1581120594045309066,mag,-0.172844238586,0.0641997490781,0.249969469911,0.950535914902,0.0,0.0,0.0,0.0,0.0,0.0,0.0,0.0,0.0,-0.000812,-0.000365,0.000854,0.0,0.0,0.0,0.0,0.0,0.0,0.0,0.0,0.0,0.038,0.079,-9.742,0.0,0.0,0.0,0.0,0.0,0.0,0.0,0.0,0.0
1581120594070810971,121,1581120594070369005,mag,-0.173638898982,0.0628180285001,0.250859388051,0.950248912382,0.0,0.0,0.0,0.0,0.0,0.0,0.0,0.0,0.0,0.000265,0.000816,-0.000755,0.0,0.0,0.0,0.0,0.0,0.0,0.0,0.0,0.0,0.041,0.072,-9.69,0.0,0.0,0.0,0.0,0.0,0.0,0.0,0.0,0.0
1581120594095774647,122,1581120594095324993,mag,-0.173529007964,0.0623390586754,0.250797096954,0.950316968868,0.0,0.0,0.0,0.0,0.0,0.0,0.0,0.0,0.0,-0.000997,-0.000422,-0.000488,0.0,0.0,0.0,0.0,0.0,0.0,0.0,0.0,0.0,0.037,0.061,-9.723,0.0,0.0,0.0,0.0,0.0,0.0,0.0,0.0,0.0
1581120594120957770,123,1581120594120286941,mag,-0.174082633655,0.0627796401197,0.250415653378,0.950287300762,0.0,0.0,0.0,0.0,0.0,0.0,0.0,0.0,0.0,0.000295,-0.000107,0.000736,0.0,0.0,0.0,0.0,0.0,0.0,0.0,0.0,0.0,0.031,0.057,-9.728,0.0,0.0,0.0,0.0,0.0,0.0,0.0,0.0,0.0
1581120594146061867,124,1581120594145360946,mag,-0.173748746589,0.0632969826203,0.250921616433,0.950180618333,0.0,0.0,0.0,0.0,0.0,0.0,0.0,0.0,0.0,-0.00064,0.000312,-3.3e-05,0.0,0.0,0.0,0.0,0.0,0.0,0.0,0.0,0.0,0.036,0.064,-9.714,0.0,0.0,0.0,0.0,0.0,0.0,0.0,0.0,0.0
1581120594170906937,125,1581120594170269966,mag,-0.174333585051,0.0636504210584,0.251015638672,0.950025038704,0.0,0.0,0.0,0.0,0.0,0.0,0.0,0.0,0.0,0.000441,-0.000508,0.000117,0.0,0.0,0.0,0.0,0.0,0.0,0.0,0.0,0.0,0.036,0.068,-9.702,0.0,0.0,0.0,0.0,0.0,0.0,0.0,0.0,0.0
1581120594196201555,126,1581120594195305109,mag,-0.174808575759,0.063524905288,0.251047432504,0.949937753162,0.0,0.0,0.0,0.0,0.0,0.0,0.0,0.0,0.0,0.000629,-0.000964,0.000454,0.0,0.0,0.0,0.0,0.0,0.0,0.0,0.0,0.0,0.025,0.054,-9.671,0.0,0.0,0.0,0.0,0.0,0.0,0.0,0.0,0.0
1581120594221267044,127,1581120594220247030,mag,-0.174840316359,0.0634374930631,0.25152236998,0.949812110709,0.0,0.0,0.0,0.0,0.0,0.0,0.0,0.0,0.0,0.000805,0.001033,0.000635,0.0,0.0,0.0,0.0,0.0,0.0,0.0,0.0,0.0,0.032,0.058,-9.747,0.0,0.0,0.0,0.0,0.0,0.0,0.0,0.0,0.0
1581120594245856211,128,1581120594245307922,mag,-0.175205259882,0.0628329343555,0.251491207651,0.949793299484,0.0,0.0,0.0,0.0,0.0,0.0,0.0,0.0,0.0,-0.001158,0.000427,8.4e-05,0.0,0.0,0.0,0.0,0.0,0.0,0.0,0.0,0.0,0.038,0.056,-9.737,0.0,0.0,0.0,0.0,0.0,0.0,0.0,0.0,0.0
1581120594270672309,129,1581120594270165920,mag,-0.17487201325,0.0633500649789,0.251997244575,0.949686230803,0.0,0.0,0.0,0.0,0.0,0.0,0.0,0.0,0.0,-0.000546,-0.00051,0.00075,0.0,0.0,0.0,0.0,0.0,0.0,0.0,0.0,0.0,0.028,0.052,-9.715,0.0,0.0,0.0,0.0,0.0,0.0,0.0,0.0,0.0
1581120594295911395,130,1581120594295257091,mag,-0.174950247658,0.0639162981669,0.25158491733,0.949743200579,0.0,0.0,0.0,0.0,0.0,0.0,0.0,0.0,0.0,0.000479,-0.000227,-0.001245,0.0,0.0,0.0,0.0,0.0,0.0,0.0,0.0,0.0,0.023,0.059,-9.72,0.0,0.0,0.0,0.0,0.0,0.0,0.0,0.0,0.0
1581120594320781785,131,1581120594320199966,mag,-0.174918267641,0.0640037652976,0.251110014301,0.949868874314,0.0,0.0,0.0,0.0,0.0,0.0,0.0,0.0,0.0,-0.000213,-1e-06,-0.00022,0.0,0.0,0.0,0.0,0.0,0.0,0.0,0.0,0.0,0.036,0.061,-9.759,0.0,0.0,0.0,0.0,0.0,0.0,0.0,0.0,0.0
1581120594345885586,132,1581120594345233917,mag,-0.17536121917,0.0639658908968,0.250667062772,0.949906748715,0.0,0.0,0.0,0.0,0.0,0.0,0.0,0.0,0.0,0.000114,5.7e-05,-0.00015,0.0,0.0,0.0,0.0,0.0,0.0,0.0,0.0,0.0,0.052,0.082,-9.7,0.0,0.0,0.0,0.0,0.0,0.0,0.0,0.0,0.0
1581120594371211356,133,1581120594370172977,mag,-0.17536121917,0.0639658908968,0.250667062772,0.949906748715,0.0,0.0,0.0,0.0,0.0,0.0,0.0,0.0,0.0,0.000356,-0.00036,0.000134,0.0,0.0,0.0,0.0,0.0,0.0,0.0,0.0,0.0,0.038,0.047,-9.728,0.0,0.0,0.0,0.0,0.0,0.0,0.0,0.0,0.0
1581120594395623324,134,1581120594395133972,mag,-0.175265073088,0.0642288606653,0.249241921183,0.950281680523,0.0,0.0,0.0,0.0,0.0,0.0,0.0,0.0,0.0,1.5e-05,-0.000628,-0.000992,0.0,0.0,0.0,0.0,0.0,0.0,0.0,0.0,0.0,0.042,0.042,-9.736,0.0,0.0,0.0,0.0,0.0,0.0,0.0,0.0,0.0
1581120594420821716,135,1581120594420154094,mag,-0.174898600605,0.0648325359392,0.249272432726,0.950300203132,0.0,0.0,0.0,0.0,0.0,0.0,0.0,0.0,0.0,2e-05,-0.000215,0.000689,0.0,0.0,0.0,0.0,0.0,0.0,0.0,0.0,0.0,0.05,0.062,-9.753,0.0,0.0,0.0,0.0,0.0,0.0,0.0,0.0,0.0
1581120594445496922,136,1581120594444991111,mag,-0.17503988104,0.0652240702944,0.249810111836,0.950106188131,0.0,0.0,0.0,0.0,0.0,0.0,0.0,0.0,0.0,-0.000364,0.000493,-0.000728,0.0,0.0,0.0,0.0,0.0,0.0,0.0,0.0,0.0,0.046,0.063,-9.702,0.0,0.0,0.0,0.0,0.0,0.0,0.0,0.0,0.0
1581120594470585610,137,1581120594470082998,mag,-0.17503988104,0.0652240702944,0.249810111836,0.950106188131,0.0,0.0,0.0,0.0,0.0,0.0,0.0,0.0,0.0,-0.000205,0.000384,-0.000436,0.0,0.0,0.0,0.0,0.0,0.0,0.0,0.0,0.0,0.033,0.072,-9.732,0.0,0.0,0.0,0.0,0.0,0.0,0.0,0.0,0.0
1581120594495215161,138,1581120594494868040,mag,-0.174941848051,0.0654865566404,0.248384672052,0.950479834289,0.0,0.0,0.0,0.0,0.0,0.0,0.0,0.0,0.0,-0.000362,0.00046,-0.000233,0.0,0.0,0.0,0.0,0.0,0.0,0.0,0.0,0.0,0.029,0.055,-9.705,0.0,0.0,0.0,0.0,0.0,0.0,0.0,0.0,0.0
1581120594520144966,139,1581120594519865036,mag,-0.17549221238,0.0659292172809,0.248005033319,0.950446908118,0.0,0.0,0.0,0.0,0.0,0.0,0.0,0.0,0.0,-0.000318,7e-05,0.000379,0.0,0.0,0.0,0.0,0.0,0.0,0.0,0.0,0.0,0.041,0.058,-9.727,0.0,0.0,0.0,0.0,0.0,0.0,0.0,0.0,0.0
1581120594545875734,140,1581120594545238971,mag,-0.175351616027,0.0655377404794,0.247466867986,0.950640186705,0.0,0.0,0.0,0.0,0.0,0.0,0.0,0.0,0.0,-0.00026,-0.000344,-0.000746,0.0,0.0,0.0,0.0,0.0,0.0,0.0,0.0,0.0,0.044,0.047,-9.727,0.0,0.0,0.0,0.0,0.0,0.0,0.0,0.0,0.0
1581120594571519877,141,1581120594570926904,mag,-0.17593448928,0.0658931820059,0.247562756419,0.950482943393,0.0,0.0,0.0,0.0,0.0,0.0,0.0,0.0,0.0,-0.000357,0.000655,-0.000513,0.0,0.0,0.0,0.0,0.0,0.0,0.0,0.0,0.0,0.055,0.05,-9.705,0.0,0.0,0.0,0.0,0.0,0.0,0.0,0.0,0.0
1581120594596417705,142,1581120594595860958,mag,-0.174549371987,0.0669182954415,0.246575208106,0.95092330144,0.0,0.0,0.0,0.0,0.0,0.0,0.0,0.0,0.0,0.00057,-0.000227,0.000169,0.0,0.0,0.0,0.0,0.0,0.0,0.0,0.0,0.0,0.016,0.058,-9.714,0.0,0.0,0.0,0.0,0.0,0.0,0.0,0.0,0.0
1581120594621897257,143,1581120594620862960,mag,-0.174991392423,0.0668825035307,0.24613318767,0.950959093351,0.0,0.0,0.0,0.0,0.0,0.0,0.0,0.0,0.0,-0.000767,0.00145,0.001436,0.0,0.0,0.0,0.0,0.0,0.0,0.0,0.0,0.0,0.043,0.046,-9.7,0.0,0.0,0.0,0.0,0.0,0.0,0.0,0.0,0.0
1581120594645600205,144,1581120594644990921,mag,-0.174991392423,0.0668825035307,0.24613318767,0.950959093351,0.0,0.0,0.0,0.0,0.0,0.0,0.0,0.0,0.0,-0.000707,-0.000245,9.1e-05,0.0,0.0,0.0,0.0,0.0,0.0,0.0,0.0,0.0,0.021,0.035,-9.721,0.0,0.0,0.0,0.0,0.0,0.0,0.0,0.0,0.0
1581120594671536181,145,1581120594670855998,mag,-0.174818020096,0.0665779644255,0.245119322509,0.95127417301,0.0,0.0,0.0,0.0,0.0,0.0,0.0,0.0,0.0,-0.00074,-0.000855,0.000628,0.0,0.0,0.0,0.0,0.0,0.0,0.0,0.0,0.0,0.023,0.037,-9.73,0.0,0.0,0.0,0.0,0.0,0.0,0.0,0.0,0.0
1581120594696498406,146,1581120594695873022,mag,-0.175154214019,0.0660634996188,0.244613838104,0.951378308318,0.0,0.0,0.0,0.0,0.0,0.0,0.0,0.0,0.0,-0.000736,-0.001169,-0.000181,0.0,0.0,0.0,0.0,0.0,0.0,0.0,0.0,0.0,0.032,0.042,-9.709,0.0,0.0,0.0,0.0,0.0,0.0,0.0,0.0,0.0
1581120594721406748,147,1581120594720685005,mag,-0.174711574053,0.0660984507537,0.245056478069,0.951343357183,0.0,0.0,0.0,0.0,0.0,0.0,0.0,0.0,0.0,0.000199,-0.000621,-0.001264,0.0,0.0,0.0,0.0,0.0,0.0,0.0,0.0,0.0,0.016,0.046,-9.694,0.0,0.0,0.0,0.0,0.0,0.0,0.0,0.0,0.0
1581120594746264691,148,1581120594745739936,mag,-0.174235880556,0.0662209707254,0.245023398213,0.951430594048,0.0,0.0,0.0,0.0,0.0,0.0,0.0,0.0,0.0,-3.8e-05,-0.000615,0.000398,0.0,0.0,0.0,0.0,0.0,0.0,0.0,0.0,0.0,0.036,0.054,-9.739,0.0,0.0,0.0,0.0,0.0,0.0,0.0,0.0,0.0
1581120594771421610,149,1581120594770704030,mag,-0.174851287225,0.0664905470968,0.245594928936,0.951151494444,0.0,0.0,0.0,0.0,0.0,0.0,0.0,0.0,0.0,-0.000184,4.2e-05,-0.000156,0.0,0.0,0.0,0.0,0.0,0.0,0.0,0.0,0.0,0.014,0.061,-9.717,0.0,0.0,0.0,0.0,0.0,0.0,0.0,0.0,0.0
1581120594796439740,150,1581120594795761108,mag,-0.17467850299,0.0661857982748,0.244580775779,0.951465766499,0.0,0.0,0.0,0.0,0.0,0.0,0.0,0.0,0.0,0.000407,0.0008,0.000416,0.0,0.0,0.0,0.0,0.0,0.0,0.0,0.0,0.0,0.02,0.053,-9.704,0.0,0.0,0.0,0.0,0.0,0.0,0.0,0.0,0.0
1581120594821249706,151,1581120594820713996,mag,-0.175080768639,0.0654964155739,0.245026351201,0.951324882055,0.0,0.0,0.0,0.0,0.0,0.0,0.0,0.0,0.0,-0.000268,-0.000779,6.9e-05,0.0,0.0,0.0,0.0,0.0,0.0,0.0,0.0,0.0,0.034,0.057,-9.712,0.0,0.0,0.0,0.0,0.0,0.0,0.0,0.0,0.0
1581120594846103319,152,1581120594845657110,mag,-0.174539378121,0.0657934928032,0.244042037724,0.951656821346,0.0,0.0,0.0,0.0,0.0,0.0,0.0,0.0,0.0,0.000498,-0.001636,0.000644,0.0,0.0,0.0,0.0,0.0,0.0,0.0,0.0,0.0,0.025,0.047,-9.734,0.0,0.0,0.0,0.0,0.0,0.0,0.0,0.0,0.0
1581120594871506643,153,1581120594870676040,mag,-0.174400645626,0.0654010484028,0.243503108884,0.951847337359,0.0,0.0,0.0,0.0,0.0,0.0,0.0,0.0,0.0,0.000705,-0.000333,8.4e-05,0.0,0.0,0.0,0.0,0.0,0.0,0.0,0.0,0.0,0.021,0.048,-9.725,0.0,0.0,0.0,0.0,0.0,0.0,0.0,0.0,0.0
1581120594896137048,154,1581120594895701885,mag,-0.174367923303,0.0654882405469,0.243027154797,0.951968969927,0.0,0.0,0.0,0.0,0.0,0.0,0.0,0.0,0.0,0.000119,-5.3e-05,-0.00092,0.0,0.0,0.0,0.0,0.0,0.0,0.0,0.0,0.0,0.023,0.055,-9.733,0.0,0.0,0.0,0.0,0.0,0.0,0.0,0.0,0.0
1581120594921312494,155,1581120594920698881,mag,-0.174778431842,0.065541529962,0.2421078655,0.95212425086,0.0,0.0,0.0,0.0,0.0,0.0,0.0,0.0,0.0,-0.000662,0.001166,0.000878,0.0,0.0,0.0,0.0,0.0,0.0,0.0,0.0,0.0,0.044,0.037,-9.741,0.0,0.0,0.0,0.0,0.0,0.0,0.0,0.0,0.0
1581120594946371530,156,1581120594945661067,mag,-0.174778431842,0.065541529962,0.2421078655,0.95212425086,0.0,0.0,0.0,0.0,0.0,0.0,0.0,0.0,0.0,0.000229,0.000638,-0.000785,0.0,0.0,0.0,0.0,0.0,0.0,0.0,0.0,0.0,0.04,0.05,-9.745,0.0,0.0,0.0,0.0,0.0,0.0,0.0,0.0,0.0
1581120594971146563,157,1581120594970596075,mag,-0.17422977963,0.0650955884893,0.24248794079,0.952158677333,0.0,0.0,0.0,0.0,0.0,0.0,0.0,0.0,0.0,0.00033,0.00065,0.000216,0.0,0.0,0.0,0.0,0.0,0.0,0.0,0.0,0.0,0.045,0.062,-9.711,0.0,0.0,0.0,0.0,0.0,0.0,0.0,0.0,0.0
1581120594996181473,158,1581120594995644092,mag,-0.174327226968,0.0648341706854,0.243915905471,0.95179387438,0.0,0.0,0.0,0.0,0.0,0.0,0.0,0.0,0.0,0.000625,0.000423,0.000549,0.0,0.0,0.0,0.0,0.0,0.0,0.0,0.0,0.0,0.025,0.065,-9.729,0.0,0.0,0.0,0.0,0.0,0.0,0.0,0.0,0.0
1581120595021099625,159,1581120595020558118,mag,-0.17469699523,0.0642325508406,0.243884894628,0.951774814461,0.0,0.0,0.0,0.0,0.0,0.0,0.0,0.0,0.0,-0.001079,-0.00027,0.000267,0.0,0.0,0.0,0.0,0.0,0.0,0.0,0.0,0.0,0.026,0.025,-9.698,0.0,0.0,0.0,0.0,0.0,0.0,0.0,0.0,0.0
1581120595046076900,160,1581120595045470952,mag,-0.17469699523,0.0642325508406,0.243884894628,0.951774814461,0.0,0.0,0.0,0.0,0.0,0.0,0.0,0.0,0.0,-0.000781,-0.000818,-0.000636,0.0,0.0,0.0,0.0,0.0,0.0,0.0,0.0,0.0,0.031,0.057,-9.694,0.0,0.0,0.0,0.0,0.0,0.0,0.0,0.0,0.0
1581120595071161645,161,1581120595070544958,mag,-0.174632675342,0.0644072156904,0.24293299803,0.952018223428,0.0,0.0,0.0,0.0,0.0,0.0,0.0,0.0,0.0,-0.000437,9e-05,0.000847,0.0,0.0,0.0,0.0,0.0,0.0,0.0,0.0,0.0,0.068,0.051,-9.711,0.0,0.0,0.0,0.0,0.0,0.0,0.0,0.0,0.0
1581120595096080883,162,1581120595095494985,mag,-0.174664857119,0.0643198913055,0.243408976755,0.951896637931,0.0,0.0,0.0,0.0,0.0,0.0,0.0,0.0,0.0,0.000538,0.000288,0.000359,0.0,0.0,0.0,0.0,0.0,0.0,0.0,0.0,0.0,0.024,0.066,-9.724,0.0,0.0,0.0,0.0,0.0,0.0,0.0,0.0,0.0
1581120595120999107,163,1581120595120500087,mag,-0.174188886987,0.0644415877488,0.243376786385,0.951983851369,0.0,0.0,0.0,0.0,0.0,0.0,0.0,0.0,0.0,0.000401,6.1e-05,0.001467,0.0,0.0,0.0,0.0,0.0,0.0,0.0,0.0,0.0,0.058,0.059,-9.724,0.0,0.0,0.0,0.0,0.0,0.0,0.0,0.0,0.0
1581120595146415852,164,1581120595145529031,mag,-0.174253241469,0.06426736667,0.244328648389,0.951739998631,0.0,0.0,0.0,0.0,0.0,0.0,0.0,0.0,0.0,7e-05,-0.000292,0.000883,0.0,0.0,0.0,0.0,0.0,0.0,0.0,0.0,0.0,0.058,0.041,-9.72,0.0,0.0,0.0,0.0,0.0,0.0,0.0,0.0,0.0
1581120595171293017,165,1581120595170496940,mag,-0.174327226968,0.0648341706854,0.243915905471,0.95179387438,0.0,0.0,0.0,0.0,0.0,0.0,0.0,0.0,0.0,0.001003,-0.000735,0.000486,0.0,0.0,0.0,0.0,0.0,0.0,0.0,0.0,0.0,0.049,0.06,-9.744,0.0,0.0,0.0,0.0,0.0,0.0,0.0,0.0,0.0
1581120595196201153,166,1581120595195482015,mag,-0.174253241469,0.06426736667,0.244328648389,0.951739998631,0.0,0.0,0.0,0.0,0.0,0.0,0.0,0.0,0.0,0.000271,0.000471,0.000437,0.0,0.0,0.0,0.0,0.0,0.0,0.0,0.0,0.0,0.037,0.061,-9.707,0.0,0.0,0.0,0.0,0.0,0.0,0.0,0.0,0.0
1581120595220923328,167,1581120595220432996,mag,-0.174359622261,0.0647469989713,0.244391771899,0.951671797458,0.0,0.0,0.0,0.0,0.0,0.0,0.0,0.0,0.0,7.2e-05,0.001266,-0.000347,0.0,0.0,0.0,0.0,0.0,0.0,0.0,0.0,0.0,0.033,0.046,-9.703,0.0,0.0,0.0,0.0,0.0,0.0,0.0,0.0,0.0
1581120595246106247,168,1581120595245454072,mag,-0.174835436345,0.064624794997,0.244424114848,0.951584498692,0.0,0.0,0.0,0.0,0.0,0.0,0.0,0.0,0.0,-0.000911,-0.000105,-0.000275,0.0,0.0,0.0,0.0,0.0,0.0,0.0,0.0,0.0,0.057,0.048,-9.711,0.0,0.0,0.0,0.0,0.0,0.0,0.0,0.0,0.0
1581120595270751697,169,1581120595270348072,mag,-0.174359622261,0.0647469989713,0.244391771899,0.951671797458,0.0,0.0,0.0,0.0,0.0,0.0,0.0,0.0,0.0,0.000743,-0.001056,0.000331,0.0,0.0,0.0,0.0,0.0,0.0,0.0,0.0,0.0,0.007,0.054,-9.741,0.0,0.0,0.0,0.0,0.0,0.0,0.0,0.0,0.0
1581120595295820303,170,1581120595295295953,mag,-0.174867726887,0.0645373692044,0.244899876525,0.951462167691,0.0,0.0,0.0,0.0,0.0,0.0,0.0,0.0,0.0,0.000208,-5.2e-05,-0.000253,0.0,0.0,0.0,0.0,0.0,0.0,0.0,0.0,0.0,0.032,0.036,-9.723,0.0,0.0,0.0,0.0,0.0,0.0,0.0,0.0,0.0
1581120595320940056,171,1581120595320369958,mag,-0.174835436345,0.064624794997,0.244424114848,0.951584498692,0.0,0.0,0.0,0.0,0.0,0.0,0.0,0.0,0.0,-0.000253,5e-06,0.000506,0.0,0.0,0.0,0.0,0.0,0.0,0.0,0.0,0.0,0.051,0.06,-9.713,0.0,0.0,0.0,0.0,0.0,0.0,0.0,0.0,0.0
1581120595345746325,172,1581120595345274925,mag,-0.174909165258,0.0651918422483,0.244011628516,0.951638131204,0.0,0.0,0.0,0.0,0.0,0.0,0.0,0.0,0.0,-0.000894,-0.00074,0.000423,0.0,0.0,0.0,0.0,0.0,0.0,0.0,0.0,0.0,0.039,0.052,-9.721,0.0,0.0,0.0,0.0,0.0,0.0,0.0,0.0,0.0
1581120595370765406,173,1581120595370302915,mag,-0.174876547474,0.0652792886783,0.243535778969,0.951760018059,0.0,0.0,0.0,0.0,0.0,0.0,0.0,0.0,0.0,-0.000227,-8.1e-05,-0.000139,0.0,0.0,0.0,0.0,0.0,0.0,0.0,0.0,0.0,0.036,0.043,-9.708,0.0,0.0,0.0,0.0,0.0,0.0,0.0,0.0,0.0
1581120595395728363,174,1581120595395263910,mag,-0.174941739314,0.0651043795203,0.244487417061,0.95151600644,0.0,0.0,0.0,0.0,0.0,0.0,0.0,0.0,0.0,-0.000797,-0.000776,-0.000529,0.0,0.0,0.0,0.0,0.0,0.0,0.0,0.0,0.0,0.033,0.049,-9.715,0.0,0.0,0.0,0.0,0.0,0.0,0.0,0.0,0.0
1581120595421000433,175,1581120595420315027,mag,-0.17538496244,0.0650698282901,0.244044193935,0.95155055767,0.0,0.0,0.0,0.0,0.0,0.0,0.0,0.0,0.0,-0.000239,0.000793,-0.000656,0.0,0.0,0.0,0.0,0.0,0.0,0.0,0.0,0.0,0.031,0.057,-9.732,0.0,0.0,0.0,0.0,0.0,0.0,0.0,0.0,0.0
1581120595445798032,176,1581120595445302009,mag,-0.175490947514,0.0655494179094,0.244107709185,0.951481806168,0.0,0.0,0.0,0.0,0.0,0.0,0.0,0.0,0.0,-0.000282,0.000112,-0.000769,0.0,0.0,0.0,0.0,0.0,0.0,0.0,0.0,0.0,0.046,0.041,-9.704,0.0,0.0,0.0,0.0,0.0,0.0,0.0,0.0,0.0
1581120595470699760,177,1581120595470226049,mag,-0.175490947514,0.0655494179094,0.244107709185,0.951481806168,0.0,0.0,0.0,0.0,0.0,0.0,0.0,0.0,0.0,-0.000646,-0.001182,-0.001023,0.0,0.0,0.0,0.0,0.0,0.0,0.0,0.0,0.0,0.047,0.07,-9.717,0.0,0.0,0.0,0.0,0.0,0.0,0.0,0.0,0.0
1581120595495210267,178,1581120595494940042,mag,-0.175999358141,0.0653393643582,0.244616119813,0.951271752617,0.0,0.0,0.0,0.0,0.0,0.0,0.0,0.0,0.0,-0.000826,0.000105,-4e-06,0.0,0.0,0.0,0.0,0.0,0.0,0.0,0.0,0.0,0.026,0.041,-9.732,0.0,0.0,0.0,0.0,0.0,0.0,0.0,0.0,0.0
1581120595520164222,179,1581120595519887924,mag,-0.176336425147,0.064825751602,0.24410914173,0.951374696962,0.0,0.0,0.0,0.0,0.0,0.0,0.0,0.0,0.0,-0.000787,0.000169,0.000217,0.0,0.0,0.0,0.0,0.0,0.0,0.0,0.0,0.0,0.044,0.063,-9.708,0.0,0.0,0.0,0.0,0.0,0.0,0.0,0.0,0.0
1581120595545288431,180,1581120595544966936,mag,-0.175819101462,0.0642924371,0.244964291433,0.951286824262,0.0,0.0,0.0,0.0,0.0,0.0,0.0,0.0,0.0,-0.000539,0.000677,-0.000657,0.0,0.0,0.0,0.0,0.0,0.0,0.0,0.0,0.0,0.033,0.044,-9.719,0.0,0.0,0.0,0.0,0.0,0.0,0.0,0.0,0.0
1581120595570921864,181,1581120595570180892,mag,-0.176032005822,0.0652513565154,0.245091725092,0.951149325653,0.0,0.0,0.0,0.0,0.0,0.0,0.0,0.0,0.0,-0.000386,-0.000986,-0.000961,0.0,0.0,0.0,0.0,0.0,0.0,0.0,0.0,0.0,0.029,0.043,-9.765,0.0,0.0,0.0,0.0,0.0,0.0,0.0,0.0,0.0
1581120595596006656,182,1581120595595189094,mag,-0.175999358141,0.0653393643582,0.244616119813,0.951271752617,0.0,0.0,0.0,0.0,0.0,0.0,0.0,0.0,0.0,-0.0009,-8.6e-05,0.000441,0.0,0.0,0.0,0.0,0.0,0.0,0.0,0.0,0.0,0.042,0.067,-9.721,0.0,0.0,0.0,0.0,0.0,0.0,0.0,0.0,0.0
1581120595620782149,183,1581120595620095968,mag,-0.175999358141,0.0653393643582,0.244616119813,0.951271752617,0.0,0.0,0.0,0.0,0.0,0.0,0.0,0.0,0.0,0.001228,0.00032,0.000329,0.0,0.0,0.0,0.0,0.0,0.0,0.0,0.0,0.0,0.035,0.05,-9.701,0.0,0.0,0.0,0.0,0.0,0.0,0.0,0.0,0.0
1581120595646800354,184,1581120595645081996,mag,-0.175589074176,0.0652861078437,0.245534656738,0.951114574325,0.0,0.0,0.0,0.0,0.0,0.0,0.0,0.0,0.0,0.000874,-6e-06,0.000317,0.0,0.0,0.0,0.0,0.0,0.0,0.0,0.0,0.0,0.072,0.064,-9.737,0.0,0.0,0.0,0.0,0.0,0.0,0.0,0.0,0.0
1581120595670154951,185,1581120595669857978,mag,-0.17576141228,0.0655897930362,0.246548929938,0.950799416359,0.0,0.0,0.0,0.0,0.0,0.0,0.0,0.0,0.0,-0.001752,-0.000134,0.000932,0.0,0.0,0.0,0.0,0.0,0.0,0.0,0.0,0.0,0.052,0.043,-9.74,0.0,0.0,0.0,0.0,0.0,0.0,0.0,0.0,0.0
1581120595695017481,186,1581120595694775104,mag,-0.176269501223,0.065378383803,0.247057018881,0.950588007126,0.0,0.0,0.0,0.0,0.0,0.0,0.0,0.0,0.0,0.000103,0.000255,0.001533,0.0,0.0,0.0,0.0,0.0,0.0,0.0,0.0,0.0,0.04,0.048,-9.737,0.0,0.0,0.0,0.0,0.0,0.0,0.0,0.0,0.0
1581120595720137134,187,1581120595719789028,mag,-0.176162156384,0.0648991622358,0.246993532292,0.950657240232,0.0,0.0,0.0,0.0,0.0,0.0,0.0,0.0,0.0,-0.000382,-0.001059,0.000434,0.0,0.0,0.0,0.0,0.0,0.0,0.0,0.0,0.0,0.029,0.043,-9.69,0.0,0.0,0.0,0.0,0.0,0.0,0.0,0.0,0.0
1581120595745082278,188,1581120595744837045,mag,-0.176119099391,0.0642438374956,0.247880586567,0.950478830367,0.0,0.0,0.0,0.0,0.0,0.0,0.0,0.0,0.0,0.000988,5.4e-05,-9.9e-05,0.0,0.0,0.0,0.0,0.0,0.0,0.0,0.0,0.0,0.041,0.039,-9.758,0.0,0.0,0.0,0.0,0.0,0.0,0.0,0.0,0.0
1581120595770219164,189,1581120595769881963,mag,-0.175675999909,0.0642799397919,0.248323686049,0.950442728071,0.0,0.0,0.0,0.0,0.0,0.0,0.0,0.0,0.0,0.000594,-2.6e-05,-0.000685,0.0,0.0,0.0,0.0,0.0,0.0,0.0,0.0,0.0,0.027,0.065,-9.702,0.0,0.0,0.0,0.0,0.0,0.0,0.0,0.0,0.0
1581120595796215408,190,1581120595795751094,mag,-0.175848813201,0.0645832311318,0.249337140615,0.95012482941,0.0,0.0,0.0,0.0,0.0,0.0,0.0,0.0,0.0,0.000816,6.2e-05,0.000785,0.0,0.0,0.0,0.0,0.0,0.0,0.0,0.0,0.0,0.052,0.054,-9.702,0.0,0.0,0.0,0.0,0.0,0.0,0.0,0.0,0.0
1581120595820623188,191,1581120595820056915,mag,-0.176464842868,0.0648492818901,0.249907666869,0.949842559538,0.0,0.0,0.0,0.0,0.0,0.0,0.0,0.0,0.0,0.00032,0.000644,0.000608,0.0,0.0,0.0,0.0,0.0,0.0,0.0,0.0,0.0,0.057,0.046,-9.756,0.0,0.0,0.0,0.0,0.0,0.0,0.0,0.0,0.0
1581120595845595714,192,1581120595844989061,mag,-0.176594188416,0.0644962227411,0.251806850906,0.949340844853,0.0,0.0,0.0,0.0,0.0,0.0,0.0,0.0,0.0,0.000209,-0.000491,0.000439,0.0,0.0,0.0,0.0,0.0,0.0,0.0,0.0,0.0,0.041,0.057,-9.705,0.0,0.0,0.0,0.0,0.0,0.0,0.0,0.0,0.0
1581120595871392949,193,1581120595870815038,mag,-0.177054770319,0.063626153557,0.253199387847,0.94894330225,0.0,0.0,0.0,0.0,0.0,0.0,0.0,0.0,0.0,0.000114,-0.001643,0.000323,0.0,0.0,0.0,0.0,0.0,0.0,0.0,0.0,0.0,0.039,0.044,-9.707,0.0,0.0,0.0,0.0,0.0,0.0,0.0,0.0,0.0
1581120595896355336,194,1581120595895837068,mag,-0.176722827587,0.0641429056073,0.253705027716,0.948835332806,0.0,0.0,0.0,0.0,0.0,0.0,0.0,0.0,0.0,-0.000182,0.0006,0.00045,0.0,0.0,0.0,0.0,0.0,0.0,0.0,0.0,0.0,0.044,0.04,-9.714,0.0,0.0,0.0,0.0,0.0,0.0,0.0,0.0,0.0
1581120595921482209,195,1581120595920829057,mag,-0.176898013059,0.0644444822289,0.254716603073,0.94851117748,0.0,0.0,0.0,0.0,0.0,0.0,0.0,0.0,0.0,-0.00028,-0.000725,0.000491,0.0,0.0,0.0,0.0,0.0,0.0,0.0,0.0,0.0,0.066,0.064,-9.719,0.0,0.0,0.0,0.0,0.0,0.0,0.0,0.0,0.0
1581120595946650201,196,1581120595945796966,mag,-0.176962369081,0.0642675520231,0.255664986735,0.948255986664,0.0,0.0,0.0,0.0,0.0,0.0,0.0,0.0,0.0,0.000198,-0.000547,-0.001448,0.0,0.0,0.0,0.0,0.0,0.0,0.0,0.0,0.0,0.063,0.063,-9.717,0.0,0.0,0.0,0.0,0.0,0.0,0.0,0.0,0.0
1581120595971250751,197,1581120595970753908,mag,-0.177659490192,0.0650960406029,0.255822969022,0.948026486742,0.0,0.0,0.0,0.0,0.0,0.0,0.0,0.0,0.0,0.001252,0.001227,-0.001146,0.0,0.0,0.0,0.0,0.0,0.0,0.0,0.0,0.0,0.036,0.068,-9.729,0.0,0.0,0.0,0.0,0.0,0.0,0.0,0.0,0.0
1581120595996895357,198,1581120595996332883,mag,-0.177756934349,0.0648294782345,0.257244720418,0.947641685902,0.0,0.0,0.0,0.0,0.0,0.0,0.0,0.0,0.0,0.000976,0.00052,0.001652,0.0,0.0,0.0,0.0,0.0,0.0,0.0,0.0,0.0,0.037,0.049,-9.735,0.0,0.0,0.0,0.0,0.0,0.0,0.0,0.0,0.0
1581120596021357073,199,1581120596020709991,mag,-0.177315548191,0.0648694428239,0.257686106576,0.947601721313,0.0,0.0,0.0,0.0,0.0,0.0,0.0,0.0,0.0,0.000494,-0.000164,5.5e-05,0.0,0.0,0.0,0.0,0.0,0.0,0.0,0.0,0.0,0.04,0.041,-9.699,0.0,0.0,0.0,0.0,0.0,0.0,0.0,0.0,0.0
1581120596046184721,200,1581120596045691013,mag,-0.177741059153,0.0640849501339,0.258603196737,0.947325509894,0.0,0.0,0.0,0.0,0.0,0.0,0.0,0.0,0.0,-0.000167,0.000734,0.000597,0.0,0.0,0.0,0.0,0.0,0.0,0.0,0.0,0.0,0.047,0.06,-9.709,0.0,0.0,0.0,0.0,0.0,0.0,0.0,0.0,0.0
1581120596071511629,201,1581120596070790052,mag,-0.1783597781,0.064344257146,0.259171692561,0.947036240016,0.0,0.0,0.0,0.0,0.0,0.0,0.0,0.0,0.0,-0.000147,-0.000578,0.001306,0.0,0.0,0.0,0.0,0.0,0.0,0.0,0.0,0.0,0.037,0.06,-9.742,0.0,0.0,0.0,0.0,0.0,0.0,0.0,0.0,0.0
1581120596096138663,202,1581120596095691919,mag,-0.178897399142,0.0640357979107,0.260150649473,0.946687264489,0.0,0.0,0.0,0.0,0.0,0.0,0.0,0.0,0.0,0.000301,-0.000595,0.000561,0.0,0.0,0.0,0.0,0.0,0.0,0.0,0.0,0.0,0.019,0.035,-9.724,0.0,0.0,0.0,0.0,0.0,0.0,0.0,0.0,0.0
1581120596121092932,203,1581120596120660066,mag,-0.178342254437,0.0635990834574,0.260529161394,0.946717356411,0.0,0.0,0.0,0.0,0.0,0.0,0.0,0.0,0.0,0.000207,-5e-05,0.000442,0.0,0.0,0.0,0.0,0.0,0.0,0.0,0.0,0.0,0.042,0.048,-9.724,0.0,0.0,0.0,0.0,0.0,0.0,0.0,0.0,0.0
1581120596146486401,204,1581120596145770072,mag,-0.178374031685,0.063509904384,0.261002487486,0.946586973496,0.0,0.0,0.0,0.0,0.0,0.0,0.0,0.0,0.0,-0.000539,0.000293,0.000549,0.0,0.0,0.0,0.0,0.0,0.0,0.0,0.0,0.0,0.046,0.04,-9.714,0.0,0.0,0.0,0.0,0.0,0.0,0.0,0.0,0.0
1581120596171334986,205,1581120596170686006,mag,-0.177964267357,0.0634624651771,0.261917245309,0.94641459819,0.0,0.0,0.0,0.0,0.0,0.0,0.0,0.0,0.0,-0.000133,-0.000329,-0.000232,0.0,0.0,0.0,0.0,0.0,0.0,0.0,0.0,0.0,0.023,0.061,-9.692,0.0,0.0,0.0,0.0,0.0,0.0,0.0,0.0,0.0
1581120596196151406,206,1581120596195511102,mag,-0.17745921894,0.0636821534275,0.261412196891,0.946634286441,0.0,0.0,0.0,0.0,0.0,0.0,0.0,0.0,0.0,0.000332,-0.000413,0.000296,0.0,0.0,0.0,0.0,0.0,0.0,0.0,0.0,0.0,0.037,0.041,-9.707,0.0,0.0,0.0,0.0,0.0,0.0,0.0,0.0,0.0
1581120596221207006,207,1581120596220530033,mag,-0.177964267357,0.0634624651771,0.261917245309,0.94641459819,0.0,0.0,0.0,0.0,0.0,0.0,0.0,0.0,0.0,-0.000646,-0.001624,0.000138,0.0,0.0,0.0,0.0,0.0,0.0,0.0,0.0,0.0,0.045,0.058,-9.747,0.0,0.0,0.0,0.0,0.0,0.0,0.0,0.0,0.0
1581120596246088750,208,1581120596245531082,mag,-0.177491037833,0.0635934158615,0.261885481338,0.946503462018,0.0,0.0,0.0,0.0,0.0,0.0,0.0,0.0,0.0,0.001096,0.000398,0.000153,0.0,0.0,0.0,0.0,0.0,0.0,0.0,0.0,0.0,0.031,0.047,-9.719,0.0,0.0,0.0,0.0,0.0,0.0,0.0,0.0,0.0
1581120596271380984,209,1581120596270637989,mag,-0.17805926081,0.0631954474809,0.263336572017,0.946020657753,0.0,0.0,0.0,0.0,0.0,0.0,0.0,0.0,0.0,0.000253,-0.000275,0.000981,0.0,0.0,0.0,0.0,0.0,0.0,0.0,0.0,0.0,0.028,0.028,-9.725,0.0,0.0,0.0,0.0,0.0,0.0,0.0,0.0,0.0
1581120596296019954,210,1581120596295514106,mag,-0.177502243969,0.0627610683473,0.263715829722,0.946048604904,0.0,0.0,0.0,0.0,0.0,0.0,0.0,0.0,0.0,-8.4e-05,0.000231,-0.000359,0.0,0.0,0.0,0.0,0.0,0.0,0.0,0.0,0.0,0.045,0.038,-9.735,0.0,0.0,0.0,0.0,0.0,0.0,0.0,0.0,0.0
1581120596321087481,211,1581120596320496082,mag,-0.178006538417,0.0625402071449,0.26422012417,0.945827743701,0.0,0.0,0.0,0.0,0.0,0.0,0.0,0.0,0.0,-4e-06,-0.000785,-0.000641,0.0,0.0,0.0,0.0,0.0,0.0,0.0,0.0,0.0,0.033,0.069,-9.725,0.0,0.0,0.0,0.0,0.0,0.0,0.0,0.0,0.0
1581120596346068414,212,1581120596345520973,mag,-0.178153853629,0.062928287595,0.264755306218,0.94562458877,0.0,0.0,0.0,0.0,0.0,0.0,0.0,0.0,0.0,-0.000392,8e-06,0.000805,0.0,0.0,0.0,0.0,0.0,0.0,0.0,0.0,0.0,0.025,0.059,-9.711,0.0,0.0,0.0,0.0,0.0,0.0,0.0,0.0,0.0
1581120596371137307,213,1581120596370508909,mag,-0.178037786268,0.0624511960618,0.264693004994,0.945695515416,0.0,0.0,0.0,0.0,0.0,0.0,0.0,0.0,0.0,-0.000362,-0.000338,-0.000634,0.0,0.0,0.0,0.0,0.0,0.0,0.0,0.0,0.0,0.051,0.036,-9.727,0.0,0.0,0.0,0.0,0.0,0.0,0.0,0.0,0.0
1581120596396138473,214,1581120596395462989,mag,-0.178216692829,0.0627501023069,0.265700798271,0.945359360696,0.0,0.0,0.0,0.0,0.0,0.0,0.0,0.0,0.0,0.000104,-0.000932,9e-06,0.0,0.0,0.0,0.0,0.0,0.0,0.0,0.0,0.0,0.029,0.068,-9.729,0.0,0.0,0.0,0.0,0.0,0.0,0.0,0.0,0.0
1581120596421027859,215,1581120596420450925,mag,-0.177572626887,0.0617513749681,0.266490797112,0.945323957659,0.0,0.0,0.0,0.0,0.0,0.0,0.0,0.0,0.0,0.000744,-2.1e-05,0.000766,0.0,0.0,0.0,0.0,0.0,0.0,0.0,0.0,0.0,0.016,0.062,-9.736,0.0,0.0,0.0,0.0,0.0,0.0,0.0,0.0,0.0
1581120596445982635,216,1581120596445461034,mag,-0.178548582012,0.0613955867269,0.267024954848,0.945012518055,0.0,0.0,0.0,0.0,0.0,0.0,0.0,0.0,0.0,-0.000565,0.000258,-0.000491,0.0,0.0,0.0,0.0,0.0,0.0,0.0,0.0,0.0,0.062,0.041,-9.736,0.0,0.0,0.0,0.0,0.0,0.0,0.0,0.0,0.0
1581120596470882379,217,1581120596470379114,mag,-0.178224338406,0.061916802474,0.267528896167,0.944897181966,0.0,0.0,0.0,0.0,0.0,0.0,0.0,0.0,0.0,-0.000952,0.000376,-0.00027,0.0,0.0,0.0,0.0,0.0,0.0,0.0,0.0,0.0,0.051,0.056,-9.708,0.0,0.0,0.0,0.0,0.0,0.0,0.0,0.0,0.0
1581120596495998374,218,1581120596495384931,mag,-0.178696764699,0.0617830302919,0.267559821126,0.944807951688,0.0,0.0,0.0,0.0,0.0,0.0,0.0,0.0,0.0,-0.000352,0.000662,1e-06,0.0,0.0,0.0,0.0,0.0,0.0,0.0,0.0,0.0,0.037,0.051,-9.704,0.0,0.0,0.0,0.0,0.0,0.0,0.0,0.0,0.0
1581120596520891896,219,1581120596520385026,mag,-0.178783075018,0.0623491397003,0.26714974583,0.944870472694,0.0,0.0,0.0,0.0,0.0,0.0,0.0,0.0,0.0,-0.000552,0.000453,-0.000598,0.0,0.0,0.0,0.0,0.0,0.0,0.0,0.0,0.0,0.046,0.033,-9.685,0.0,0.0,0.0,0.0,0.0,0.0,0.0,0.0,0.0
1581120596546101367,220,1581120596545361042,mag,-0.178603889154,0.0620510058326,0.266142308725,0.945208228361,0.0,0.0,0.0,0.0,0.0,0.0,0.0,0.0,0.0,-0.00044,-0.001351,-0.000459,0.0,0.0,0.0,0.0,0.0,0.0,0.0,0.0,0.0,0.03,0.059,-9.698,0.0,0.0,0.0,0.0,0.0,0.0,0.0,0.0,0.0
1581120596570784424,221,1581120596570329904,mag,-0.178572841327,0.062140300017,0.265669671363,0.945341181358,0.0,0.0,0.0,0.0,0.0,0.0,0.0,0.0,0.0,-0.000508,0.000706,0.000599,0.0,0.0,0.0,0.0,0.0,0.0,0.0,0.0,0.0,0.043,0.053,-9.766,0.0,0.0,0.0,0.0,0.0,0.0,0.0,0.0,0.0
1581120596595774638,222,1581120596595292091,mag,-0.178603889154,0.0620510058326,0.266142308725,0.945208228361,0.0,0.0,0.0,0.0,0.0,0.0,0.0,0.0,0.0,-0.000342,-0.000936,0.001319,0.0,0.0,0.0,0.0,0.0,0.0,0.0,0.0,0.0,0.039,0.061,-9.699,0.0,0.0,0.0,0.0,0.0,0.0,0.0,0.0,0.0
1581120596620936752,223,1581120596620302915,mag,-0.179076470923,0.0619179269274,0.266173300959,0.945118808269,0.0,0.0,0.0,0.0,0.0,0.0,0.0,0.0,0.0,-0.000733,-0.000326,-0.000543,0.0,0.0,0.0,0.0,0.0,0.0,0.0,0.0,0.0,0.041,0.048,-9.7,0.0,0.0,0.0,0.0,0.0,0.0,0.0,0.0,0.0
1581120596646062529,224,1581120596645324945,mag,-0.179076470923,0.0619179269274,0.266173300959,0.945118808269,0.0,0.0,0.0,0.0,0.0,0.0,0.0,0.0,0.0,-0.000208,0.000356,-0.000571,0.0,0.0,0.0,0.0,0.0,0.0,0.0,0.0,0.0,0.043,0.044,-9.75,0.0,0.0,0.0,0.0,0.0,0.0,0.0,0.0,0.0
1581120596670968237,225,1581120596670277118,mag,-0.179021065932,0.0612620665806,0.267055619262,0.944923125641,0.0,0.0,0.0,0.0,0.0,0.0,0.0,0.0,0.0,0.000414,0.00096,0.000526,0.0,0.0,0.0,0.0,0.0,0.0,0.0,0.0,0.0,0.019,0.037,-9.732,0.0,0.0,0.0,0.0,0.0,0.0,0.0,0.0,0.0
1581120596695815891,226,1581120596695281028,mag,-0.178934158093,0.06069583883,0.26746534877,0.944860238037,0.0,0.0,0.0,0.0,0.0,0.0,0.0,0.0,0.0,2.4e-05,0.00101,0.000194,0.0,0.0,0.0,0.0,0.0,0.0,0.0,0.0,0.0,0.046,0.055,-9.706,0.0,0.0,0.0,0.0,0.0,0.0,0.0,0.0,0.0
1581120596721122910,227,1581120596720273017,mag,-0.178786464957,0.0603085148598,0.266930084464,0.945064343308,0.0,0.0,0.0,0.0,0.0,0.0,0.0,0.0,0.0,0.000791,3.4e-05,-0.000373,0.0,0.0,0.0,0.0,0.0,0.0,0.0,0.0,0.0,0.033,0.063,-9.707,0.0,0.0,0.0,0.0,0.0,0.0,0.0,0.0,0.0
1581120596745939525,228,1581120596745183944,mag,-0.178756288353,0.06039790055,0.266457518946,0.945197690211,0.0,0.0,0.0,0.0,0.0,0.0,0.0,0.0,0.0,-0.000724,-0.000309,-0.000341,0.0,0.0,0.0,0.0,0.0,0.0,0.0,0.0,0.0,0.044,0.047,-9.721,0.0,0.0,0.0,0.0,0.0,0.0,0.0,0.0,0.0
1581120596770811876,229,1581120596770210981,mag,-0.178313910457,0.0604419723579,0.266899896842,0.945153618403,0.0,0.0,0.0,0.0,0.0,0.0,0.0,0.0,0.0,-5e-05,-0.000543,-0.000377,0.0,0.0,0.0,0.0,0.0,0.0,0.0,0.0,0.0,0.044,0.031,-9.717,0.0,0.0,0.0,0.0,0.0,0.0,0.0,0.0,0.0
1581120596796058358,230,1581120596795133113,mag,-0.178253379337,0.0606202560177,0.265954609931,0.945420045679,0.0,0.0,0.0,0.0,0.0,0.0,0.0,0.0,0.0,0.000662,-0.000489,0.000328,0.0,0.0,0.0,0.0,0.0,0.0,0.0,0.0,0.0,0.043,0.035,-9.737,0.0,0.0,0.0,0.0,0.0,0.0,0.0,0.0,0.0
1581120596821073965,231,1581120596820230007,mag,-0.178283667183,0.0605311217542,0.26642728669,0.945286950202,0.0,0.0,0.0,0.0,0.0,0.0,0.0,0.0,0.0,-0.000224,-0.000416,0.000889,0.0,0.0,0.0,0.0,0.0,0.0,0.0,0.0,0.0,0.036,0.073,-9.722,0.0,0.0,0.0,0.0,0.0,0.0,0.0,0.0,0.0
1581120596845715737,232,1581120596845113039,mag,-0.178253379337,0.0606202560177,0.265954609931,0.945420045679,0.0,0.0,0.0,0.0,0.0,0.0,0.0,0.0,0.0,-0.000377,-0.000894,0.001253,0.0,0.0,0.0,0.0,0.0,0.0,0.0,0.0,0.0,0.036,0.035,-9.741,0.0,0.0,0.0,0.0,0.0,0.0,0.0,0.0,0.0
1581120596870875627,233,1581120596870126962,mag,-0.178253379337,0.0606202560177,0.265954609931,0.945420045679,0.0,0.0,0.0,0.0,0.0,0.0,0.0,0.0,0.0,-0.000638,-0.000605,0.000518,0.0,0.0,0.0,0.0,0.0,0.0,0.0,0.0,0.0,0.035,0.061,-9.747,0.0,0.0,0.0,0.0,0.0,0.0,0.0,0.0,0.0
1581120596895627959,234,1581120596895102024,mag,-0.178549076719,0.0601889346174,0.264976415289,0.94566644156,0.0,0.0,0.0,0.0,0.0,0.0,0.0,0.0,0.0,0.000234,-0.000431,-9.3e-05,0.0,0.0,0.0,0.0,0.0,0.0,0.0,0.0,0.0,0.039,0.072,-9.713,0.0,0.0,0.0,0.0,0.0,0.0,0.0,0.0,0.0
1581120596920489287,235,1581120596920066118,mag,-0.179107977128,0.0606230012078,0.264596936485,0.945639278719,0.0,0.0,0.0,0.0,0.0,0.0,0.0,0.0,0.0,-0.000116,0.00038,0.001017,0.0,0.0,0.0,0.0,0.0,0.0,0.0,0.0,0.0,0.037,0.066,-9.742,0.0,0.0,0.0,0.0,0.0,0.0,0.0,0.0,0.0
1581120596945992980,236,1581120596945045948,mag,-0.179162882826,0.0612792384277,0.263714450759,0.945833074499,0.0,0.0,0.0,0.0,0.0,0.0,0.0,0.0,0.0,0.000204,-0.000471,0.001676,0.0,0.0,0.0,0.0,0.0,0.0,0.0,0.0,0.0,0.036,0.053,-9.71,0.0,0.0,0.0,0.0,0.0,0.0,0.0,0.0,0.0
1581120596970541847,237,1581120596970057964,mag,-0.17857429052,0.0609338968203,0.263620731071,0.945992808183,0.0,0.0,0.0,0.0,0.0,0.0,0.0,0.0,0.0,0.000202,-0.000985,-0.000263,0.0,0.0,0.0,0.0,0.0,0.0,0.0,0.0,0.0,0.038,0.074,-9.719,0.0,0.0,0.0,0.0,0.0,0.0,0.0,0.0,0.0
1581120596996104726,238,1581120596995100975,mag,-0.179107977128,0.0606230012078,0.264596936485,0.945639278719,0.0,0.0,0.0,0.0,0.0,0.0,0.0,0.0,0.0,8.6e-05,0.000132,-0.000255,0.0,0.0,0.0,0.0,0.0,0.0,0.0,0.0,0.0,0.033,0.061,-9.706,0.0,0.0,0.0,0.0,0.0,0.0,0.0,0.0,0.0
1581120597021682939,239,1581120597020875930,mag,-0.178543801251,0.0610231763451,0.263147701734,0.946124500294,0.0,0.0,0.0,0.0,0.0,0.0,0.0,0.0,0.0,-7.8e-05,0.000283,0.000934,0.0,0.0,0.0,0.0,0.0,0.0,0.0,0.0,0.0,0.028,0.046,-9.737,0.0,0.0,0.0,0.0,0.0,0.0,0.0,0.0,0.0
1581120597045492096,240,1581120597044992923,mag,-0.178513267346,0.0611124406141,0.26267460661,0.946255955873,0.0,0.0,0.0,0.0,0.0,0.0,0.0,0.0,0.0,-1.2e-05,-0.000993,0.000618,0.0,0.0,0.0,0.0,0.0,0.0,0.0,0.0,0.0,0.043,0.05,-9.715,0.0,0.0,0.0,0.0,0.0,0.0,0.0,0.0,0.0
1581120597071499857,241,1581120597070816040,mag,-0.177978784294,0.0614217797384,0.261697541298,0.946607265023,0.0,0.0,0.0,0.0,0.0,0.0,0.0,0.0,0.0,9.7e-05,-0.000572,0.000314,0.0,0.0,0.0,0.0,0.0,0.0,0.0,0.0,0.0,0.032,0.049,-9.71,0.0,0.0,0.0,0.0,0.0,0.0,0.0,0.0,0.0
1581120597096435441,242,1581120597095792055,mag,-0.178421397892,0.0613801416633,0.2612549277,0.946648903098,0.0,0.0,0.0,0.0,0.0,0.0,0.0,0.0,0.0,-0.001175,0.001374,0.000847,0.0,0.0,0.0,0.0,0.0,0.0,0.0,0.0,0.0,0.062,0.066,-9.708,0.0,0.0,0.0,0.0,0.0,0.0,0.0,0.0,0.0
1581120597121460839,243,1581120597120800971,mag,-0.17839068552,0.061469344686,0.260781570611,0.946779412225,0.0,0.0,0.0,0.0,0.0,0.0,0.0,0.0,0.0,-0.00019,-0.000473,-0.000588,0.0,0.0,0.0,0.0,0.0,0.0,0.0,0.0,0.0,0.04,0.057,-9.75,0.0,0.0,0.0,0.0,0.0,0.0,0.0,0.0,0.0
1581120597146430993,244,1581120597145749092,mag,-0.178925302412,0.0611600515299,0.261758832219,0.946428812964,0.0,0.0,0.0,0.0,0.0,0.0,0.0,0.0,0.0,-0.001012,-8.1e-05,0.000214,0.0,0.0,0.0,0.0,0.0,0.0,0.0,0.0,0.0,0.034,0.065,-9.713,0.0,0.0,0.0,0.0,0.0,0.0,0.0,0.0,0.0
1581120597171371625,245,1581120597170748949,mag,-0.178833361078,0.0614283705778,0.260338895053,0.946820386333,0.0,0.0,0.0,0.0,0.0,0.0,0.0,0.0,0.0,-6.2e-05,-0.000146,-0.000447,0.0,0.0,0.0,0.0,0.0,0.0,0.0,0.0,0.0,0.045,0.049,-9.75,0.0,0.0,0.0,0.0,0.0,0.0,0.0,0.0,0.0
1581120597196258705,246,1581120597195775985,mag,-0.178298280848,0.0617368614609,0.259361108646,0.947169519308,0.0,0.0,0.0,0.0,0.0,0.0,0.0,0.0,0.0,-0.000153,-0.00082,-0.000237,0.0,0.0,0.0,0.0,0.0,0.0,0.0,0.0,0.0,0.04,0.048,-9.696,0.0,0.0,0.0,0.0,0.0,0.0,0.0,0.0,0.0
1581120597221503904,247,1581120597220709085,mag,-0.178854248379,0.0621742831204,0.258982008667,0.94713981837,0.0,0.0,0.0,0.0,0.0,0.0,0.0,0.0,0.0,-0.001355,-0.000302,-0.000372,0.0,0.0,0.0,0.0,0.0,0.0,0.0,0.0,0.0,0.04,0.06,-9.73,0.0,0.0,0.0,0.0,0.0,0.0,0.0,0.0,0.0
1581120597246288569,248,1581120597245717048,mag,-0.178679231457,0.0618752615512,0.257971032995,0.947468274081,0.0,0.0,0.0,0.0,0.0,0.0,0.0,0.0,0.0,0.000181,-7e-06,-0.000137,0.0,0.0,0.0,0.0,0.0,0.0,0.0,0.0,0.0,0.032,0.052,-9.747,0.0,0.0,0.0,0.0,0.0,0.0,0.0,0.0,0.0
1581120597271285633,249,1581120597270711898,mag,-0.178698253914,0.0626212239811,0.256613352269,0.947784312907,0.0,0.0,0.0,0.0,0.0,0.0,0.0,0.0,0.0,0.00079,-0.000867,-0.000707,0.0,0.0,0.0,0.0,0.0,0.0,0.0,0.0,0.0,0.065,0.051,-9.689,0.0,0.0,0.0,0.0,0.0,0.0,0.0,0.0,0.0
1581120597296444654,250,1581120597295663118,mag,-0.179140854864,0.0625824877292,0.25617075132,0.947823049159,0.0,0.0,0.0,0.0,0.0,0.0,0.0,0.0,0.0,-0.000378,-8.4e-05,0.000317,0.0,0.0,0.0,0.0,0.0,0.0,0.0,0.0,0.0,0.019,0.048,-9.778,0.0,0.0,0.0,0.0,0.0,0.0,0.0,0.0,0.0
1581120597321325070,251,1581120597320610046,mag,-0.178523985092,0.0623217658045,0.255601558618,0.948110240155,0.0,0.0,0.0,0.0,0.0,0.0,0.0,0.0,0.0,0.000367,-0.000382,-0.00076,0.0,0.0,0.0,0.0,0.0,0.0,0.0,0.0,0.0,0.04,0.065,-9.734,0.0,0.0,0.0,0.0,0.0,0.0,0.0,0.0,0.0
1581120597346174459,252,1581120597345612049,mag,-0.178604121078,0.0628892008126,0.255191387643,0.948168166534,0.0,0.0,0.0,0.0,0.0,0.0,0.0,0.0,0.0,-0.00028,-0.00098,-0.000573,0.0,0.0,0.0,0.0,0.0,0.0,0.0,0.0,0.0,0.025,0.05,-9.723,0.0,0.0,0.0,0.0,0.0,0.0,0.0,0.0,0.0
1581120597371289078,253,1581120597370565891,mag,-0.178572654153,0.0629784950082,0.254717271681,0.948295643701,0.0,0.0,0.0,0.0,0.0,0.0,0.0,0.0,0.0,-0.000589,0.000802,-0.000547,0.0,0.0,0.0,0.0,0.0,0.0,0.0,0.0,0.0,0.049,0.04,-9.722,0.0,0.0,0.0,0.0,0.0,0.0,0.0,0.0,0.0
1581120597396399031,254,1581120597395593881,mag,-0.177560947399,0.0634107733714,0.253705564926,0.948727922064,0.0,0.0,0.0,0.0,0.0,0.0,0.0,0.0,0.0,1e-06,-0.00011,0.000378,0.0,0.0,0.0,0.0,0.0,0.0,0.0,0.0,0.0,0.045,0.075,-9.714,0.0,0.0,0.0,0.0,0.0,0.0,0.0,0.0,0.0
1581120597421023764,255,1581120597420566082,mag,-0.178082029901,0.0639403900181,0.252852260697,0.948822507854,0.0,0.0,0.0,0.0,0.0,0.0,0.0,0.0,0.0,-4.5e-05,-0.000292,-0.000604,0.0,0.0,0.0,0.0,0.0,0.0,0.0,0.0,0.0,0.056,0.065,-9.749,0.0,0.0,0.0,0.0,0.0,0.0,0.0,0.0,0.0
1581120597446007294,256,1581120597445507049,mag,-0.178082029901,0.0639403900181,0.252852260697,0.948822507854,0.0,0.0,0.0,0.0,0.0,0.0,0.0,0.0,0.0,-0.000857,-0.000754,0.001312,0.0,0.0,0.0,0.0,0.0,0.0,0.0,0.0,0.0,0.028,0.068,-9.747,0.0,0.0,0.0,0.0,0.0,0.0,0.0,0.0,0.0
1581120597471115145,257,1581120597470510005,mag,-0.178018000481,0.0641184400481,0.251903311921,0.949074885662,0.0,0.0,0.0,0.0,0.0,0.0,0.0,0.0,0.0,-0.000358,-4.6e-05,0.000133,0.0,0.0,0.0,0.0,0.0,0.0,0.0,0.0,0.0,0.032,0.07,-9.727,0.0,0.0,0.0,0.0,0.0,0.0,0.0,0.0,0.0
1581120597496138347,258,1581120597495625019,mag,-0.178382915375,0.0635139287641,0.25187124279,0.949055527043,0.0,0.0,0.0,0.0,0.0,0.0,0.0,0.0,0.0,5.2e-05,-0.000857,0.00207,0.0,0.0,0.0,0.0,0.0,0.0,0.0,0.0,0.0,0.042,0.064,-9.697,0.0,0.0,0.0,0.0,0.0,0.0,0.0,0.0,0.0
1581120597521310442,259,1581120597520625114,mag,-0.178903030221,0.0640454397421,0.25101828218,0.949147885968,0.0,0.0,0.0,0.0,0.0,0.0,0.0,0.0,0.0,-0.000735,0.000282,0.000801,0.0,0.0,0.0,0.0,0.0,0.0,0.0,0.0,0.0,0.005,0.028,-9.716,0.0,0.0,0.0,0.0,0.0,0.0,0.0,0.0,0.0
1581120597545985352,260,1581120597545461893,mag,-0.178793943418,0.0635668109057,0.250953876259,0.9492176454,0.0,0.0,0.0,0.0,0.0,0.0,0.0,0.0,0.0,-0.000709,0.000553,0.000331,0.0,0.0,0.0,0.0,0.0,0.0,0.0,0.0,0.0,0.02,0.052,-9.72,0.0,0.0,0.0,0.0,0.0,0.0,0.0,0.0,0.0
1581120597570996826,261,1581120597570436954,mag,-0.178793943418,0.0635668109057,0.250953876259,0.9492176454,0.0,0.0,0.0,0.0,0.0,0.0,0.0,0.0,0.0,6.3e-05,-3.4e-05,0.000433,0.0,0.0,0.0,0.0,0.0,0.0,0.0,0.0,0.0,0.009,0.068,-9.733,0.0,0.0,0.0,0.0,0.0,0.0,0.0,0.0,0.0
1581120597595818820,262,1581120597595338106,mag,-0.178762137665,0.0636561999279,0.250479236087,0.949343003681,0.0,0.0,0.0,0.0,0.0,0.0,0.0,0.0,0.0,-0.000518,2.7e-05,-0.000172,0.0,0.0,0.0,0.0,0.0,0.0,0.0,0.0,0.0,0.051,0.064,-9.73,0.0,0.0,0.0,0.0,0.0,0.0,0.0,0.0,0.0
1581120597620958142,263,1581120597620477914,mag,-0.178255530837,0.0638705673292,0.249972629259,0.949557371082,0.0,0.0,0.0,0.0,0.0,0.0,0.0,0.0,0.0,6e-05,-0.000971,5.9e-05,0.0,0.0,0.0,0.0,0.0,0.0,0.0,0.0,0.0,0.021,0.048,-9.744,0.0,0.0,0.0,0.0,0.0,0.0,0.0,0.0,0.0
1581120597645860964,264,1581120597645400047,mag,-0.178255530837,0.0638705673292,0.249972629259,0.949557371082,0.0,0.0,0.0,0.0,0.0,0.0,0.0,0.0,0.0,0.000674,0.001144,-0.000409,0.0,0.0,0.0,0.0,0.0,0.0,0.0,0.0,0.0,0.032,0.086,-9.722,0.0,0.0,0.0,0.0,0.0,0.0,0.0,0.0,0.0
1581120597670969840,265,1581120597670435905,mag,-0.178223573273,0.0639596871071,0.249497819347,0.949682238697,0.0,0.0,0.0,0.0,0.0,0.0,0.0,0.0,0.0,0.000955,-3.7e-05,0.000238,0.0,0.0,0.0,0.0,0.0,0.0,0.0,0.0,0.0,0.057,0.044,-9.747,0.0,0.0,0.0,0.0,0.0,0.0,0.0,0.0,0.0
1581120597695914874,266,1581120597695375919,mag,-0.177716645464,0.0641732943573,0.248990891538,0.949895845947,0.0,0.0,0.0,0.0,0.0,0.0,0.0,0.0,0.0,-0.00052,-0.001424,0.000528,0.0,0.0,0.0,0.0,0.0,0.0,0.0,0.0,0.0,0.04,0.044,-9.73,0.0,0.0,0.0,0.0,0.0,0.0,0.0,0.0,0.0
1581120597720938427,267,1581120597720386028,mag,-0.177349908998,0.064776724108,0.249022600738,0.94991511732,0.0,0.0,0.0,0.0,0.0,0.0,0.0,0.0,0.0,0.000123,-2.9e-05,-5.1e-05,0.0,0.0,0.0,0.0,0.0,0.0,0.0,0.0,0.0,0.049,0.055,-9.748,0.0,0.0,0.0,0.0,0.0,0.0,0.0,0.0,0.0
1581120597745933251,268,1581120597745371103,mag,-0.177652383322,0.0643509788865,0.248040871355,0.950144361849,0.0,0.0,0.0,0.0,0.0,0.0,0.0,0.0,0.0,-0.000464,-0.000264,0.001007,0.0,0.0,0.0,0.0,0.0,0.0,0.0,0.0,0.0,0.075,0.077,-9.698,0.0,0.0,0.0,0.0,0.0,0.0,0.0,0.0,0.0
1581120597770982339,269,1581120597770397901,mag,-0.177294404801,0.0656990911055,0.246710976002,0.950465158632,0.0,0.0,0.0,0.0,0.0,0.0,0.0,0.0,0.0,-0.000105,0.00064,-0.00052,0.0,0.0,0.0,0.0,0.0,0.0,0.0,0.0,0.0,0.024,0.032,-9.711,0.0,0.0,0.0,0.0,0.0,0.0,0.0,0.0,0.0
1581120597796181394,270,1581120597795334100,mag,-0.177220000937,0.0651312941361,0.247122273725,0.95041126236,0.0,0.0,0.0,0.0,0.0,0.0,0.0,0.0,0.0,-0.000189,-0.000361,0.001624,0.0,0.0,0.0,0.0,0.0,0.0,0.0,0.0,0.0,0.055,0.039,-9.701,0.0,0.0,0.0,0.0,0.0,0.0,0.0,0.0,0.0
1581120597820740537,271,1581120597820297002,mag,-0.177294404801,0.0656990911055,0.246710976002,0.950465158632,0.0,0.0,0.0,0.0,0.0,0.0,0.0,0.0,0.0,0.000935,0.001705,0.000242,0.0,0.0,0.0,0.0,0.0,0.0,0.0,0.0,0.0,0.039,0.041,-9.73,0.0,0.0,0.0,0.0,0.0,0.0,0.0,0.0,0.0
1581120597845789176,272,1581120597845333099,mag,-0.177368240832,0.0662669621948,0.246299624589,0.95051864358,0.0,0.0,0.0,0.0,0.0,0.0,0.0,0.0,0.0,-0.000627,0.00025,0.000244,0.0,0.0,0.0,0.0,0.0,0.0,0.0,0.0,0.0,0.056,0.042,-9.72,0.0,0.0,0.0,0.0,0.0,0.0,0.0,0.0,0.0
1581120597871224420,273,1581120597870282888,mag,-0.177368240832,0.0662669621948,0.246299624589,0.95051864358,0.0,0.0,0.0,0.0,0.0,0.0,0.0,0.0,0.0,0.00103,0.000135,0.000667,0.0,0.0,0.0,0.0,0.0,0.0,0.0,0.0,0.0,0.026,0.058,-9.732,0.0,0.0,0.0,0.0,0.0,0.0,0.0,0.0,0.0
1581120597896114274,274,1581120597895282030,mag,-0.177777245248,0.0663216144807,0.245382174433,0.95067569812,0.0,0.0,0.0,0.0,0.0,0.0,0.0,0.0,0.0,-0.001347,0.000428,0.000584,0.0,0.0,0.0,0.0,0.0,0.0,0.0,0.0,0.0,0.067,0.036,-9.722,0.0,0.0,0.0,0.0,0.0,0.0,0.0,0.0,0.0
1581120597920601995,275,1581120597920238018,mag,-0.177268640886,0.0665329399059,0.244873570071,0.950887023545,0.0,0.0,0.0,0.0,0.0,0.0,0.0,0.0,0.0,-0.000203,0.000491,-7.6e-05,0.0,0.0,0.0,0.0,0.0,0.0,0.0,0.0,0.0,0.023,0.052,-9.726,0.0,0.0,0.0,0.0,0.0,0.0,0.0,0.0,0.0
1581120597946196221,276,1581120597945261001,mag,-0.17774406222,0.0664104948094,0.244906805931,0.950798270367,0.0,0.0,0.0,0.0,0.0,0.0,0.0,0.0,0.0,-0.000268,0.000971,-0.000833,0.0,0.0,0.0,0.0,0.0,0.0,0.0,0.0,0.0,0.033,0.064,-9.755,0.0,0.0,0.0,0.0,0.0,0.0,0.0,0.0,0.0
1581120597970870626,277,1581120597970262050,mag,-0.177849971711,0.066889837764,0.244971000932,0.950728323901,0.0,0.0,0.0,0.0,0.0,0.0,0.0,0.0,0.0,-0.000478,0.000283,-0.000868,0.0,0.0,0.0,0.0,0.0,0.0,0.0,0.0,0.0,0.052,0.039,-9.703,0.0,0.0,0.0,0.0,0.0,0.0,0.0,0.0,0.0
1581120597996159073,278,1581120597995187997,mag,-0.17774406222,0.0664104948094,0.244906805931,0.950798270367,0.0,0.0,0.0,0.0,0.0,0.0,0.0,0.0,0.0,-0.000214,-3.3e-05,0.000677,0.0,0.0,0.0,0.0,0.0,0.0,0.0,0.0,0.0,0.058,0.052,-9.705,0.0,0.0,0.0,0.0,0.0,0.0,0.0,0.0,0.0
1581120598020930384,279,1581120598020215034,mag,-0.177777245248,0.0663216144807,0.245382174433,0.95067569812,0.0,0.0,0.0,0.0,0.0,0.0,0.0,0.0,0.0,0.000311,-0.000579,-0.000587,0.0,0.0,0.0,0.0,0.0,0.0,0.0,0.0,0.0,0.032,0.045,-9.742,0.0,0.0,0.0,0.0,0.0,0.0,0.0,0.0,0.0
1581120598045595315,280,1581120598045110940,mag,-0.177408069322,0.0669236192326,0.245412903322,0.950694542433,0.0,0.0,0.0,0.0,0.0,0.0,0.0,0.0,0.0,0.00028,0.000143,0.000334,0.0,0.0,0.0,0.0,0.0,0.0,0.0,0.0,0.0,0.053,0.058,-9.704,0.0,0.0,0.0,0.0,0.0,0.0,0.0,0.0,0.0
1581120598071443866,281,1581120598070959091,mag,-0.176899154621,0.0671347752791,0.24490398862,0.950905698479,0.0,0.0,0.0,0.0,0.0,0.0,0.0,0.0,0.0,-0.001276,-0.000546,-4.2e-05,0.0,0.0,0.0,0.0,0.0,0.0,0.0,0.0,0.0,0.032,0.069,-9.713,0.0,0.0,0.0,0.0,0.0,0.0,0.0,0.0,0.0
1581120598095538868,282,1581120598095066070,mag,-0.176899154621,0.0671347752791,0.24490398862,0.950905698479,0.0,0.0,0.0,0.0,0.0,0.0,0.0,0.0,0.0,-0.00063,6.3e-05,0.000965,0.0,0.0,0.0,0.0,0.0,0.0,0.0,0.0,0.0,0.032,0.05,-9.706,0.0,0.0,0.0,0.0,0.0,0.0,0.0,0.0,0.0
1581120598121327985,283,1581120598120871067,mag,-0.176865565122,0.0672232164609,0.244428505178,0.951028031605,0.0,0.0,0.0,0.0,0.0,0.0,0.0,0.0,0.0,-2.7e-05,0.000833,-0.000428,0.0,0.0,0.0,0.0,0.0,0.0,0.0,0.0,0.0,0.041,0.042,-9.722,0.0,0.0,0.0,0.0,0.0,0.0,0.0,0.0,0.0
1581120598145523982,284,1581120598145014047,mag,-0.176798253484,0.067400048385,0.24347735509,0.951271984556,0.0,0.0,0.0,0.0,0.0,0.0,0.0,0.0,0.0,-0.000395,2e-05,0.000389,0.0,0.0,0.0,0.0,0.0,0.0,0.0,0.0,0.0,0.041,0.056,-9.696,0.0,0.0,0.0,0.0,0.0,0.0,0.0,0.0,0.0
1581120598171409228,285,1581120598170859098,mag,-0.176831931407,0.0673116408369,0.243952960628,0.951150126974,0.0,0.0,0.0,0.0,0.0,0.0,0.0,0.0,0.0,0.0012,-0.000731,0.000544,0.0,0.0,0.0,0.0,0.0,0.0,0.0,0.0,0.0,0.019,0.048,-9.684,0.0,0.0,0.0,0.0,0.0,0.0,0.0,0.0,0.0
1581120598195716658,286,1581120598194988965,mag,-0.176937387124,0.0677911366585,0.244016685075,0.951080112416,0.0,0.0,0.0,0.0,0.0,0.0,0.0,0.0,0.0,-0.000474,0.00055,0.000526,0.0,0.0,0.0,0.0,0.0,0.0,0.0,0.0,0.0,0.045,0.058,-9.721,0.0,0.0,0.0,0.0,0.0,0.0,0.0,0.0,0.0
1581120598221403349,287,1581120598220727920,mag,-0.177042798607,0.0682706155324,0.244080348519,0.951009860087,0.0,0.0,0.0,0.0,0.0,0.0,0.0,0.0,0.0,0.000357,0.000145,0.000372,0.0,0.0,0.0,0.0,0.0,0.0,0.0,0.0,0.0,0.058,0.053,-9.699,0.0,0.0,0.0,0.0,0.0,0.0,0.0,0.0,0.0
1581120598245727703,288,1581120598244954109,mag,-0.177148165829,0.0687500773386,0.244143950942,0.950939370006,0.0,0.0,0.0,0.0,0.0,0.0,0.0,0.0,0.0,0.000427,0.000226,0.001655,0.0,0.0,0.0,0.0,0.0,0.0,0.0,0.0,0.0,0.014,0.073,-9.719,0.0,0.0,0.0,0.0,0.0,0.0,0.0,0.0,0.0
1581120598271516726,289,1581120598270692110,mag,-0.17700864117,0.0683591283942,0.243604813098,0.95113178138,0.0,0.0,0.0,0.0,0.0,0.0,0.0,0.0,0.0,0.000291,-0.000771,-0.000111,0.0,0.0,0.0,0.0,0.0,0.0,0.0,0.0,0.0,0.021,0.044,-9.72,0.0,0.0,0.0,0.0,0.0,0.0,0.0,0.0,0.0
1581120598296420740,290,1581120598295782089,mag,-0.176940193549,0.0685361028263,0.242653559673,0.951374910587,0.0,0.0,0.0,0.0,0.0,0.0,0.0,0.0,0.0,0.000502,7.2e-05,-0.000326,0.0,0.0,0.0,0.0,0.0,0.0,0.0,0.0,0.0,0.044,0.036,-9.727,0.0,0.0,0.0,0.0,0.0,0.0,0.0,0.0,0.0
1581120598321457157,291,1581120598320808887,mag,-0.176058797367,0.0693464429267,0.242172359836,0.951602290274,0.0,0.0,0.0,0.0,0.0,0.0,0.0,0.0,0.0,0.000258,0.000102,5e-06,0.0,0.0,0.0,0.0,0.0,0.0,0.0,0.0,0.0,0.023,0.047,-9.74,0.0,0.0,0.0,0.0,0.0,0.0,0.0,0.0,0.0
1581120598346220331,292,1581120598345746994,mag,-0.176058797367,0.0693464429267,0.242172359836,0.951602290274,0.0,0.0,0.0,0.0,0.0,0.0,0.0,0.0,0.0,-5.7e-05,-0.000231,9.2e-05,0.0,0.0,0.0,0.0,0.0,0.0,0.0,0.0,0.0,0.043,0.039,-9.713,0.0,0.0,0.0,0.0,0.0,0.0,0.0,0.0,0.0
1581120598371500012,293,1581120598370748996,mag,-0.175652353952,0.0692919027545,0.243089225318,0.951447587257,0.0,0.0,0.0,0.0,0.0,0.0,0.0,0.0,0.0,-4.3e-05,-0.000428,0.001418,0.0,0.0,0.0,0.0,0.0,0.0,0.0,0.0,0.0,0.036,0.031,-9.741,0.0,0.0,0.0,0.0,0.0,0.0,0.0,0.0,0.0
1581120598396335027,294,1581120598395649909,mag,-0.175211612034,0.0700683612845,0.242165615599,0.951707481518,0.0,0.0,0.0,0.0,0.0,0.0,0.0,0.0,0.0,0.000346,-0.000724,0.000491,0.0,0.0,0.0,0.0,0.0,0.0,0.0,0.0,0.0,0.041,0.062,-9.732,0.0,0.0,0.0,0.0,0.0,0.0,0.0,0.0,0.0
1581120598421186789,295,1581120598420717000,mag,-0.175106312418,0.0703310997771,0.240737782476,0.952069659134,0.0,0.0,0.0,0.0,0.0,0.0,0.0,0.0,0.0,-0.000158,0.000705,0.000434,0.0,0.0,0.0,0.0,0.0,0.0,0.0,0.0,0.0,0.037,0.056,-9.726,0.0,0.0,0.0,0.0,0.0,0.0,0.0,0.0,0.0
1581120598446138922,296,1581120598445590972,mag,-0.175478575462,0.0697308166449,0.240709849174,0.952052336416,0.0,0.0,0.0,0.0,0.0,0.0,0.0,0.0,0.0,0.000182,-0.000184,0.000203,0.0,0.0,0.0,0.0,0.0,0.0,0.0,0.0,0.0,0.066,0.061,-9.718,0.0,0.0,0.0,0.0,0.0,0.0,0.0,0.0,0.0
1581120598471315043,297,1581120598470715045,mag,-0.175106312418,0.0703310997771,0.240737782476,0.952069659134,0.0,0.0,0.0,0.0,0.0,0.0,0.0,0.0,0.0,0.001116,-0.001051,-0.001195,0.0,0.0,0.0,0.0,0.0,0.0,0.0,0.0,0.0,0.03,0.076,-9.728,0.0,0.0,0.0,0.0,0.0,0.0,0.0,0.0,0.0
1581120598496403975,298,1581120598495783090,mag,-0.174897553796,0.0701135879582,0.23924647352,0.952499897831,0.0,0.0,0.0,0.0,0.0,0.0,0.0,0.0,0.0,-0.000412,-0.000181,-9e-06,0.0,0.0,0.0,0.0,0.0,0.0,0.0,0.0,0.0,0.034,0.07,-9.738,0.0,0.0,0.0,0.0,0.0,0.0,0.0,0.0,0.0
1581120598521651297,299,1581120598520711898,mag,-0.17523592927,0.0696015045854,0.23874199532,0.95260183672,0.0,0.0,0.0,0.0,0.0,0.0,0.0,0.0,0.0,-0.000231,-0.000191,0.000206,0.0,0.0,0.0,0.0,0.0,0.0,0.0,0.0,0.0,0.041,0.052,-9.708,0.0,0.0,0.0,0.0,0.0,0.0,0.0,0.0,0.0
1581120598546046367,300,1581120598545622110,mag,-0.175270708116,0.0695138779242,0.239218266376,0.952482346653,0.0,0.0,0.0,0.0,0.0,0.0,0.0,0.0,0.0,-1e-05,0.000635,-0.000531,0.0,0.0,0.0,0.0,0.0,0.0,0.0,0.0,0.0,0.031,0.059,-9.736,0.0,0.0,0.0,0.0,0.0,0.0,0.0,0.0,0.0
1581120598571447099,301,1581120598570682048,mag,-0.174794445054,0.0696334783632,0.239183479536,0.952569862943,0.0,0.0,0.0,0.0,0.0,0.0,0.0,0.0,0.0,0.000517,-0.000144,0.000311,0.0,0.0,0.0,0.0,0.0,0.0,0.0,0.0,0.0,0.052,0.055,-9.737,0.0,0.0,0.0,0.0,0.0,0.0,0.0,0.0,0.0
1581120598596096731,302,1581120598595619916,mag,-0.175270708116,0.0695138779242,0.239218266376,0.952482346653,0.0,0.0,0.0,0.0,0.0,0.0,0.0,0.0,0.0,-0.000341,3.1e-05,-6.9e-05,0.0,0.0,0.0,0.0,0.0,0.0,0.0,0.0,0.0,0.026,0.057,-9.764,0.0,0.0,0.0,0.0,0.0,0.0,0.0,0.0,0.0
1581120598621172181,303,1581120598620568037,mag,-0.175167590552,0.0690337825078,0.23915497254,0.952552125189,0.0,0.0,0.0,0.0,0.0,0.0,0.0,0.0,0.0,8.1e-05,-0.001688,3.8e-05,0.0,0.0,0.0,0.0,0.0,0.0,0.0,0.0,0.0,0.032,0.054,-9.707,0.0,0.0,0.0,0.0,0.0,0.0,0.0,0.0,0.0
1581120598646195842,304,1581120598645500898,mag,-0.175202085546,0.068946190087,0.239631218688,0.952432428639,0.0,0.0,0.0,0.0,0.0,0.0,0.0,0.0,0.0,-0.000435,0.001101,0.000168,0.0,0.0,0.0,0.0,0.0,0.0,0.0,0.0,0.0,0.019,0.054,-9.712,0.0,0.0,0.0,0.0,0.0,0.0,0.0,0.0,0.0
1581120598671388430,305,1581120598670572042,mag,-0.1745880965,0.0686732070682,0.239057312195,0.952709078721,0.0,0.0,0.0,0.0,0.0,0.0,0.0,0.0,0.0,0.000328,0.000371,-0.000906,0.0,0.0,0.0,0.0,0.0,0.0,0.0,0.0,0.0,0.011,0.062,-9.716,0.0,0.0,0.0,0.0,0.0,0.0,0.0,0.0,0.0
1581120598696242391,306,1581120598695636987,mag,-0.175472196251,0.0686096219311,0.238173212444,0.952772663858,0.0,0.0,0.0,0.0,0.0,0.0,0.0,0.0,0.0,0.000668,-0.000637,0.000882,0.0,0.0,0.0,0.0,0.0,0.0,0.0,0.0,0.0,0.049,0.063,-9.744,0.0,0.0,0.0,0.0,0.0,0.0,0.0,0.0,0.0
1581120598721136348,307,1581120598720541000,mag,-0.175029172744,0.0693839793878,0.23724939125,0.953028529712,0.0,0.0,0.0,0.0,0.0,0.0,0.0,0.0,0.0,-0.000513,0.00025,-0.000355,0.0,0.0,0.0,0.0,0.0,0.0,0.0,0.0,0.0,0.039,0.052,-9.702,0.0,0.0,0.0,0.0,0.0,0.0,0.0,0.0,0.0
1581120598745893281,308,1581120598745445013,mag,-0.175537954032,0.0699211878241,0.236394737282,0.953108064373,0.0,0.0,0.0,0.0,0.0,0.0,0.0,0.0,0.0,0.000657,0.000168,-0.001551,0.0,0.0,0.0,0.0,0.0,0.0,0.0,0.0,0.0,0.026,0.037,-9.728,0.0,0.0,0.0,0.0,0.0,0.0,0.0,0.0,0.0
1581120598770986621,309,1581120598770499944,mag,-0.175843468337,0.0694985210434,0.235412477178,0.953325755345,0.0,0.0,0.0,0.0,0.0,0.0,0.0,0.0,0.0,-0.000474,0.000336,6e-05,0.0,0.0,0.0,0.0,0.0,0.0,0.0,0.0,0.0,0.034,0.07,-9.725,0.0,0.0,0.0,0.0,0.0,0.0,0.0,0.0,0.0
1581120598795821914,310,1581120598795315980,mag,-0.175808697098,0.0695864340865,0.234935784894,0.953443342413,0.0,0.0,0.0,0.0,0.0,0.0,0.0,0.0,0.0,0.000186,0.000193,-6.6e-05,0.0,0.0,0.0,0.0,0.0,0.0,0.0,0.0,0.0,0.034,0.046,-9.717,0.0,0.0,0.0,0.0,0.0,0.0,0.0,0.0,0.0
1581120598820703135,311,1581120598820255994,mag,-0.175808697098,0.0695864340865,0.234935784894,0.953443342413,0.0,0.0,0.0,0.0,0.0,0.0,0.0,0.0,0.0,0.000115,-0.000182,0.000717,0.0,0.0,0.0,0.0,0.0,0.0,0.0,0.0,0.0,0.029,0.062,-9.757,0.0,0.0,0.0,0.0,0.0,0.0,0.0,0.0,0.0
1581120598845754841,312,1581120598845280885,mag,-0.176285396773,0.0694689575007,0.234970548742,0.953355318888,0.0,0.0,0.0,0.0,0.0,0.0,0.0,0.0,0.0,2.5e-05,7.7e-05,0.000424,0.0,0.0,0.0,0.0,0.0,0.0,0.0,0.0,0.0,0.017,0.051,-9.732,0.0,0.0,0.0,0.0,0.0,0.0,0.0,0.0,0.0
1581120598871204038,313,1581120598870685100,mag,-0.176626733685,0.0689593417853,0.234463929314,0.953453864631,0.0,0.0,0.0,0.0,0.0,0.0,0.0,0.0,0.0,-0.000844,-0.000359,-0.000141,0.0,0.0,0.0,0.0,0.0,0.0,0.0,0.0,0.0,0.054,0.041,-9.73,0.0,0.0,0.0,0.0,0.0,0.0,0.0,0.0,0.0
1581120598895830629,314,1581120598895350933,mag,-0.176049285091,0.0685960214693,0.234364940334,0.95361119425,0.0,0.0,0.0,0.0,0.0,0.0,0.0,0.0,0.0,-0.000529,-0.000481,-0.00077,0.0,0.0,0.0,0.0,0.0,0.0,0.0,0.0,0.0,0.035,0.035,-9.709,0.0,0.0,0.0,0.0,0.0,0.0,0.0,0.0,0.0
1581120598921208045,315,1581120598920314073,mag,-0.176014965075,0.0686840375337,0.233888105461,0.953728257514,0.0,0.0,0.0,0.0,0.0,0.0,0.0,0.0,0.0,0.000621,-7.7e-05,0.000388,0.0,0.0,0.0,0.0,0.0,0.0,0.0,0.0,0.0,0.043,0.052,-9.73,0.0,0.0,0.0,0.0,0.0,0.0,0.0,0.0,0.0
1581120598945803715,316,1581120598945163011,mag,-0.176592231937,0.0690476465285,0.233987173093,0.953570977409,0.0,0.0,0.0,0.0,0.0,0.0,0.0,0.0,0.0,0.000602,-0.000842,0.00028,0.0,0.0,0.0,0.0,0.0,0.0,0.0,0.0,0.0,0.038,0.07,-9.694,0.0,0.0,0.0,0.0,0.0,0.0,0.0,0.0,0.0
1581120598971161073,317,1581120598970341920,mag,-0.176557686041,0.0691359340099,0.233510358376,0.953687851794,0.0,0.0,0.0,0.0,0.0,0.0,0.0,0.0,0.0,-0.000628,0.000738,0.00046,0.0,0.0,0.0,0.0,0.0,0.0,0.0,0.0,0.0,0.057,0.038,-9.733,0.0,0.0,0.0,0.0,0.0,0.0,0.0,0.0,0.0
1581120598995944212,318,1581120598995273113,mag,-0.176622996018,0.0697048487138,0.233098250995,0.953735160685,0.0,0.0,0.0,0.0,0.0,0.0,0.0,0.0,0.0,-0.000469,0.001078,-0.000309,0.0,0.0,0.0,0.0,0.0,0.0,0.0,0.0,0.0,0.054,0.04,-9.73,0.0,0.0,0.0,0.0,0.0,0.0,0.0,0.0,0.0
1581120599020815963,319,1581120599020307064,mag,-0.176281125999,0.0702139167127,0.23360468431,0.95363715426,0.0,0.0,0.0,0.0,0.0,0.0,0.0,0.0,0.0,-0.000492,-0.000354,-5e-06,0.0,0.0,0.0,0.0,0.0,0.0,0.0,0.0,0.0,0.028,0.062,-9.704,0.0,0.0,0.0,0.0,0.0,0.0,0.0,0.0,0.0
1581120599046206543,320,1581120599045341014,mag,-0.176316210921,0.0701257673767,0.234081473666,0.953520232718,0.0,0.0,0.0,0.0,0.0,0.0,0.0,0.0,0.0,-0.000674,0.000728,0.000327,0.0,0.0,0.0,0.0,0.0,0.0,0.0,0.0,0.0,0.057,0.053,-9.717,0.0,0.0,0.0,0.0,0.0,0.0,0.0,0.0,0.0
1581120599070913367,321,1581120599070293903,mag,-0.176893241213,0.070489227361,0.2341810866,0.953362086889,0.0,0.0,0.0,0.0,0.0,0.0,0.0,0.0,0.0,0.000126,0.000829,0.000475,0.0,0.0,0.0,0.0,0.0,0.0,0.0,0.0,0.0,0.059,0.031,-9.732,0.0,0.0,0.0,0.0,0.0,0.0,0.0,0.0,0.0
1581120599095915852,322,1581120599095218896,mag,-0.176416538078,0.0706063090883,0.234145812716,0.953450414336,0.0,0.0,0.0,0.0,0.0,0.0,0.0,0.0,0.0,-0.000177,0.000713,0.001165,0.0,0.0,0.0,0.0,0.0,0.0,0.0,0.0,0.0,0.0,0.051,-9.696,0.0,0.0,0.0,0.0,0.0,0.0,0.0,0.0,0.0
1581120599120690388,323,1581120599120156049,mag,-0.175362602689,0.0703598137484,0.23401123087,0.953696072139,0.0,0.0,0.0,0.0,0.0,0.0,0.0,0.0,0.0,0.000559,0.00038,0.000497,0.0,0.0,0.0,0.0,0.0,0.0,0.0,0.0,0.0,0.028,0.036,-9.703,0.0,0.0,0.0,0.0,0.0,0.0,0.0,0.0,0.0
1581120599145740226,324,1581120599145190000,mag,-0.174920949295,0.0703893588917,0.234452884264,0.953666526996,0.0,0.0,0.0,0.0,0.0,0.0,0.0,0.0,0.0,-0.000548,0.00012,0.000319,0.0,0.0,0.0,0.0,0.0,0.0,0.0,0.0,0.0,0.032,0.069,-9.673,0.0,0.0,0.0,0.0,0.0,0.0,0.0,0.0,0.0
1581120599170659884,325,1581120599170151948,mag,-0.175262161923,0.0698791903481,0.233947313892,0.953765551735,0.0,0.0,0.0,0.0,0.0,0.0,0.0,0.0,0.0,0.000156,0.000147,0.000518,0.0,0.0,0.0,0.0,0.0,0.0,0.0,0.0,0.0,0.039,0.068,-9.727,0.0,0.0,0.0,0.0,0.0,0.0,0.0,0.0,0.0
1581120599195622621,326,1581120599195099115,mag,-0.176180995055,0.0697333073441,0.233540251958,0.953706702054,0.0,0.0,0.0,0.0,0.0,0.0,0.0,0.0,0.0,0.000826,-0.000679,-0.000584,0.0,0.0,0.0,0.0,0.0,0.0,0.0,0.0,0.0,0.029,0.054,-9.691,0.0,0.0,0.0,0.0,0.0,0.0,0.0,0.0,0.0
1581120599220942206,327,1581120599220082998,mag,-0.176281125999,0.0702139167127,0.23360468431,0.95363715426,0.0,0.0,0.0,0.0,0.0,0.0,0.0,0.0,0.0,-0.000803,-0.000413,-0.000237,0.0,0.0,0.0,0.0,0.0,0.0,0.0,0.0,0.0,0.033,0.042,-9.733,0.0,0.0,0.0,0.0,0.0,0.0,0.0,0.0,0.0
1581120599245705712,328,1581120599245086908,mag,-0.176046171717,0.069340712292,0.232998844051,0.953892630076,0.0,0.0,0.0,0.0,0.0,0.0,0.0,0.0,0.0,-0.000502,-0.000509,-0.000764,0.0,0.0,0.0,0.0,0.0,0.0,0.0,0.0,0.0,0.04,0.05,-9.712,0.0,0.0,0.0,0.0,0.0,0.0,0.0,0.0,0.0
1581120599271494611,329,1581120599270929098,mag,-0.175976742993,0.069516723764,0.232044835081,0.954125151935,0.0,0.0,0.0,0.0,0.0,0.0,0.0,0.0,0.0,-0.000692,-0.000587,-0.000426,0.0,0.0,0.0,0.0,0.0,0.0,0.0,0.0,0.0,0.017,0.024,-9.721,0.0,0.0,0.0,0.0,0.0,0.0,0.0,0.0,0.0
1581120599295783897,330,1581120599295072078,mag,-0.175634181792,0.070025737914,0.232551444847,0.954027701755,0.0,0.0,0.0,0.0,0.0,0.0,0.0,0.0,0.0,0.00047,2.4e-05,-7e-05,0.0,0.0,0.0,0.0,0.0,0.0,0.0,0.0,0.0,0.033,0.06,-9.737,0.0,0.0,0.0,0.0,0.0,0.0,0.0,0.0,0.0
1581120599321385780,331,1581120599320811033,mag,-0.17553445287,0.0695449789575,0.232487125204,0.954096896742,0.0,0.0,0.0,0.0,0.0,0.0,0.0,0.0,0.0,0.000788,0.001036,-0.000406,0.0,0.0,0.0,0.0,0.0,0.0,0.0,0.0,0.0,0.04,0.054,-9.716,0.0,0.0,0.0,0.0,0.0,0.0,0.0,0.0,0.0
1581120599346353858,332,1581120599345813035,mag,-0.175122053111,0.0702295746799,0.232039316166,0.954231538521,0.0,0.0,0.0,0.0,0.0,0.0,0.0,0.0,0.0,0.000214,-0.000364,-0.00036,0.0,0.0,0.0,0.0,0.0,0.0,0.0,0.0,0.0,0.036,0.069,-9.727,0.0,0.0,0.0,0.0,0.0,0.0,0.0,0.0,0.0
1581120599371481967,333,1581120599370867013,mag,-0.17460972085,0.0704328992154,0.231526983904,0.954434863056,0.0,0.0,0.0,0.0,0.0,0.0,0.0,0.0,0.0,0.000751,-0.000389,0.000544,0.0,0.0,0.0,0.0,0.0,0.0,0.0,0.0,0.0,0.043,0.055,-9.719,0.0,0.0,0.0,0.0,0.0,0.0,0.0,0.0,0.0
1581120599396257321,334,1581120599395796060,mag,-0.174673515653,0.0710011498299,0.231113622211,0.954481269214,0.0,0.0,0.0,0.0,0.0,0.0,0.0,0.0,0.0,2.6e-05,-0.000462,0.000561,0.0,0.0,0.0,0.0,0.0,0.0,0.0,0.0,0.0,0.058,0.051,-9.709,0.0,0.0,0.0,0.0,0.0,0.0,0.0,0.0,0.0
1581120599421881243,335,1581120599420881986,mag,-0.174673515653,0.0710011498299,0.231113622211,0.954481269214,0.0,0.0,0.0,0.0,0.0,0.0,0.0,0.0,0.0,-0.000277,4.1e-05,-0.000187,0.0,0.0,0.0,0.0,0.0,0.0,0.0,0.0,0.0,0.045,0.04,-9.739,0.0,0.0,0.0,0.0,0.0,0.0,0.0,0.0,0.0
1581120599446308109,336,1581120599445780038,mag,-0.17460972085,0.0704328992154,0.231526983904,0.954434863056,0.0,0.0,0.0,0.0,0.0,0.0,0.0,0.0,0.0,-0.000975,-0.000861,-7.2e-05,0.0,0.0,0.0,0.0,0.0,0.0,0.0,0.0,0.0,0.033,0.034,-9.71,0.0,0.0,0.0,0.0,0.0,0.0,0.0,0.0,0.0
1581120599471845785,337,1581120599470890998,mag,-0.174132481612,0.0705486538984,0.231491738515,0.954522048609,0.0,0.0,0.0,0.0,0.0,0.0,0.0,0.0,0.0,-0.000492,-0.000658,2.4e-05,0.0,0.0,0.0,0.0,0.0,0.0,0.0,0.0,0.0,0.025,0.054,-9.722,0.0,0.0,0.0,0.0,0.0,0.0,0.0,0.0,0.0
1581120599496642732,338,1581120599495820999,mag,-0.174068142008,0.0699806740914,0.231905337637,0.954475196937,0.0,0.0,0.0,0.0,0.0,0.0,0.0,0.0,0.0,0.001171,-0.000864,-0.000894,0.0,0.0,0.0,0.0,0.0,0.0,0.0,0.0,0.0,0.021,0.046,-9.713,0.0,0.0,0.0,0.0,0.0,0.0,0.0,0.0,0.0
1581120599521494813,339,1581120599520776033,mag,-0.174510403655,0.069951976622,0.23146307599,0.954503894406,0.0,0.0,0.0,0.0,0.0,0.0,0.0,0.0,0.0,-0.000289,-0.000612,0.00053,0.0,0.0,0.0,0.0,0.0,0.0,0.0,0.0,0.0,0.044,0.049,-9.723,0.0,0.0,0.0,0.0,0.0,0.0,0.0,0.0,0.0
1581120599546673867,340,1581120599545772075,mag,-0.174033129914,0.0700676994112,0.23142807107,0.954591030291,0.0,0.0,0.0,0.0,0.0,0.0,0.0,0.0,0.0,-0.000395,-0.000112,-0.000941,0.0,0.0,0.0,0.0,0.0,0.0,0.0,0.0,0.0,0.026,0.062,-9.719,0.0,0.0,0.0,0.0,0.0,0.0,0.0,0.0,0.0
1581120599571467672,341,1581120599570734977,mag,-0.174510403655,0.069951976622,0.23146307599,0.954503894406,0.0,0.0,0.0,0.0,0.0,0.0,0.0,0.0,0.0,0.000597,0.000174,0.000254,0.0,0.0,0.0,0.0,0.0,0.0,0.0,0.0,0.0,0.046,0.063,-9.679,0.0,0.0,0.0,0.0,0.0,0.0,0.0,0.0,0.0
1581120599596415418,342,1581120599595712900,mag,-0.175086916435,0.0703171269241,0.231562171411,0.954347438895,0.0,0.0,0.0,0.0,0.0,0.0,0.0,0.0,0.0,-0.000682,-0.000325,0.000408,0.0,0.0,0.0,0.0,0.0,0.0,0.0,0.0,0.0,0.025,0.064,-9.738,0.0,0.0,0.0,0.0,0.0,0.0,0.0,0.0,0.0
1581120599621478570,343,1581120599620740890,mag,-0.175157146007,0.0701420048783,0.23251640291,0.954115399589,0.0,0.0,0.0,0.0,0.0,0.0,0.0,0.0,0.0,0.00022,-0.000111,-6.1e-05,0.0,0.0,0.0,0.0,0.0,0.0,0.0,0.0,0.0,0.031,0.056,-9.709,0.0,0.0,0.0,0.0,0.0,0.0,0.0,0.0,0.0
1581120599646264820,344,1581120599645647048,mag,-0.175285350428,0.0712788552247,0.231690294459,0.954208561152,0.0,0.0,0.0,0.0,0.0,0.0,0.0,0.0,0.0,8.2e-05,-9.9e-05,-0.000333,0.0,0.0,0.0,0.0,0.0,0.0,0.0,0.0,0.0,0.036,0.058,-9.734,0.0,0.0,0.0,0.0,0.0,0.0,0.0,0.0,0.0
1581120599671223321,345,1581120599670592069,mag,-0.174808224257,0.0713946914573,0.231654626072,0.954296084548,0.0,0.0,0.0,0.0,0.0,0.0,0.0,0.0,0.0,0.000375,0.000253,-0.000183,0.0,0.0,0.0,0.0,0.0,0.0,0.0,0.0,0.0,0.034,0.05,-9.723,0.0,0.0,0.0,0.0,0.0,0.0,0.0,0.0,0.0
1581120599696202268,346,1581120599695698976,mag,-0.174744429454,0.0708264408428,0.232067987765,0.95424967839,0.0,0.0,0.0,0.0,0.0,0.0,0.0,0.0,0.0,0.00111,0.000106,0.000968,0.0,0.0,0.0,0.0,0.0,0.0,0.0,0.0,0.0,0.039,0.045,-9.694,0.0,0.0,0.0,0.0,0.0,0.0,0.0,0.0,0.0
1581120599721267238,347,1581120599720555067,mag,-0.17477982083,0.0707390597784,0.232545083575,0.95413352512,0.0,0.0,0.0,0.0,0.0,0.0,0.0,0.0,0.0,1.6e-05,0.000264,0.000438,0.0,0.0,0.0,0.0,0.0,0.0,0.0,0.0,0.0,0.036,0.049,-9.728,0.0,0.0,0.0,0.0,0.0,0.0,0.0,0.0,0.0
1581120599746028351,348,1581120599745510101,mag,-0.174366787846,0.0714233353788,0.232096062483,0.954267440626,0.0,0.0,0.0,0.0,0.0,0.0,0.0,0.0,0.0,0.00068,0.000429,0.000633,0.0,0.0,0.0,0.0,0.0,0.0,0.0,0.0,0.0,0.022,0.059,-9.728,0.0,0.0,0.0,0.0,0.0,0.0,0.0,0.0,0.0
1581120599771041016,349,1581120599770575046,mag,-0.174979198515,0.0717006175463,0.232672470612,0.953994141989,0.0,0.0,0.0,0.0,0.0,0.0,0.0,0.0,0.0,0.000469,0.000123,-0.000224,0.0,0.0,0.0,0.0,0.0,0.0,0.0,0.0,0.0,0.041,0.081,-9.734,0.0,0.0,0.0,0.0,0.0,0.0,0.0,0.0,0.0
1581120599796636308,350,1581120599796216964,mag,-0.174979198515,0.0717006175463,0.232672470612,0.953994141989,0.0,0.0,0.0,0.0,0.0,0.0,0.0,0.0,0.0,0.000522,0.000604,-0.000158,0.0,0.0,0.0,0.0,0.0,0.0,0.0,0.0,0.0,0.013,0.05,-9.704,0.0,0.0,0.0,0.0,0.0,0.0,0.0,0.0,0.0
1581120599821244610,351,1581120599820554971,mag,-0.17484389975,0.0713072784245,0.232131745137,0.954180137953,0.0,0.0,0.0,0.0,0.0,0.0,0.0,0.0,0.0,-0.000792,0.000563,0.000201,0.0,0.0,0.0,0.0,0.0,0.0,0.0,0.0,0.0,0.039,0.036,-9.713,0.0,0.0,0.0,0.0,0.0,0.0,0.0,0.0,0.0
1581120599845947891,352,1581120599845447063,mag,-0.174744429454,0.0708264408428,0.232067987765,0.95424967839,0.0,0.0,0.0,0.0,0.0,0.0,0.0,0.0,0.0,-0.0004,-0.000773,-0.001011,0.0,0.0,0.0,0.0,0.0,0.0,0.0,0.0,0.0,0.036,0.032,-9.739,0.0,0.0,0.0,0.0,0.0,0.0,0.0,0.0,0.0
1581120599870956998,353,1581120599870410919,mag,-0.174267282791,0.0709424659785,0.232032545537,0.95433693132,0.0,0.0,0.0,0.0,0.0,0.0,0.0,0.0,0.0,-0.000772,0.000289,-6.3e-05,0.0,0.0,0.0,0.0,0.0,0.0,0.0,0.0,0.0,0.036,0.041,-9.71,0.0,0.0,0.0,0.0,0.0,0.0,0.0,0.0,0.0
1581120599895914360,354,1581120599895376920,mag,-0.173718947206,0.071232227913,0.231042505517,0.95465546546,0.0,0.0,0.0,0.0,0.0,0.0,0.0,0.0,0.0,0.000675,0.000541,0.000593,0.0,0.0,0.0,0.0,0.0,0.0,0.0,0.0,0.0,0.034,0.059,-9.688,0.0,0.0,0.0,0.0,0.0,0.0,0.0,0.0,0.0
1581120599920959683,355,1581120599920505046,mag,-0.17361984494,0.070751209707,0.230979101843,0.954724604417,0.0,0.0,0.0,0.0,0.0,0.0,0.0,0.0,0.0,-0.000377,1e-05,-0.000701,0.0,0.0,0.0,0.0,0.0,0.0,0.0,0.0,0.0,0.027,0.062,-9.724,0.0,0.0,0.0,0.0,0.0,0.0,0.0,0.0,0.0
1581120599945953347,356,1581120599945344924,mag,-0.173683309378,0.071319078479,0.230565148923,0.954770867376,0.0,0.0,0.0,0.0,0.0,0.0,0.0,0.0,0.0,-0.000349,0.001129,-0.000172,0.0,0.0,0.0,0.0,0.0,0.0,0.0,0.0,0.0,0.034,0.063,-9.719,0.0,0.0,0.0,0.0,0.0,0.0,0.0,0.0,0.0
1581120599970983351,357,1581120599970344066,mag,-0.17364762813,0.0714059112151,0.230087734689,0.954886030599,0.0,0.0,0.0,0.0,0.0,0.0,0.0,0.0,0.0,9.8e-05,-0.000414,0.000502,0.0,0.0,0.0,0.0,0.0,0.0,0.0,0.0,0.0,0.05,0.05,-9.731,0.0,0.0,0.0,0.0,0.0,0.0,0.0,0.0,0.0
1581120599995915234,358,1581120599995282888,mag,-0.173710240695,0.0719738745449,0.22967371284,0.954931672577,0.0,0.0,0.0,0.0,0.0,0.0,0.0,0.0,0.0,0.00012,0.000672,-8.9e-05,0.0,0.0,0.0,0.0,0.0,0.0,0.0,0.0,0.0,0.038,0.044,-9.712,0.0,0.0,0.0,0.0,0.0,0.0,0.0,0.0,0.0
1581120600020901191,359,1581120600020416021,mag,-0.173674232045,0.0720607206649,0.229196218315,0.955046390062,0.0,0.0,0.0,0.0,0.0,0.0,0.0,0.0,0.0,-0.000648,-0.000254,-0.000181,0.0,0.0,0.0,0.0,0.0,0.0,0.0,0.0,0.0,0.039,0.038,-9.72,0.0,0.0,0.0,0.0,0.0,0.0,0.0,0.0,0.0
1581120600046126841,360,1581120600045310974,mag,-0.17427473132,0.0730827022188,0.22840456371,0.955048999757,0.0,0.0,0.0,0.0,0.0,0.0,0.0,0.0,0.0,1.6e-05,0.000327,-0.000237,0.0,0.0,0.0,0.0,0.0,0.0,0.0,0.0,0.0,0.042,0.045,-9.694,0.0,0.0,0.0,0.0,0.0,0.0,0.0,0.0,0.0
1581120600071013127,361,1581120600070363998,mag,-0.174445658186,0.0733895024058,0.229423051508,0.954750101709,0.0,0.0,0.0,0.0,0.0,0.0,0.0,0.0,0.0,0.000544,0.001888,-0.000233,0.0,0.0,0.0,0.0,0.0,0.0,0.0,0.0,0.0,0.049,0.061,-9.737,0.0,0.0,0.0,0.0,0.0,0.0,0.0,0.0,0.0
1581120600095961453,362,1581120600095351934,mag,-0.174384159273,0.0728212080018,0.229836879717,0.95470531861,0.0,0.0,0.0,0.0,0.0,0.0,0.0,0.0,0.0,3.6e-05,-0.000638,7.5e-05,0.0,0.0,0.0,0.0,0.0,0.0,0.0,0.0,0.0,0.035,0.057,-9.703,0.0,0.0,0.0,0.0,0.0,0.0,0.0,0.0,0.0
1581120600120852844,363,1581120600120337009,mag,-0.17440894163,0.0734767160575,0.228945647799,0.954864693886,0.0,0.0,0.0,0.0,0.0,0.0,0.0,0.0,0.0,-0.0004,0.000243,-0.000643,0.0,0.0,0.0,0.0,0.0,0.0,0.0,0.0,0.0,0.041,0.034,-9.71,0.0,0.0,0.0,0.0,0.0,0.0,0.0,0.0,0.0
1581120600145870860,364,1581120600145287036,mag,-0.174983964175,0.0738433441952,0.229046129024,0.954707098318,0.0,0.0,0.0,0.0,0.0,0.0,0.0,0.0,0.0,0.000459,0.000992,0.000259,0.0,0.0,0.0,0.0,0.0,0.0,0.0,0.0,0.0,0.016,0.057,-9.729,0.0,0.0,0.0,0.0,0.0,0.0,0.0,0.0,0.0
1581120600170811197,365,1581120600170284032,mag,-0.17484964918,0.073449668056,0.22850494025,0.954891741888,0.0,0.0,0.0,0.0,0.0,0.0,0.0,0.0,0.0,0.000244,-8.7e-05,0.000258,0.0,0.0,0.0,0.0,0.0,0.0,0.0,0.0,0.0,0.038,0.076,-9.719,0.0,0.0,0.0,0.0,0.0,0.0,0.0,0.0,0.0
1581120600196115714,366,1581120600195302009,mag,-0.174983964175,0.0738433441952,0.229046129024,0.954707098318,0.0,0.0,0.0,0.0,0.0,0.0,0.0,0.0,0.0,0.000754,-0.0007,-0.000406,0.0,0.0,0.0,0.0,0.0,0.0,0.0,0.0,0.0,0.052,0.057,-9.738,0.0,0.0,0.0,0.0,0.0,0.0,0.0,0.0,0.0
1581120600220820741,367,1581120600220313072,mag,-0.174886352156,0.0733622340538,0.228982357537,0.954777370061,0.0,0.0,0.0,0.0,0.0,0.0,0.0,0.0,0.0,-0.00124,-0.000902,-0.001379,0.0,0.0,0.0,0.0,0.0,0.0,0.0,0.0,0.0,0.051,0.043,-9.712,0.0,0.0,0.0,0.0,0.0,0.0,0.0,0.0,0.0
1581120600245870017,368,1581120600245291948,mag,-0.174886352156,0.0733622340538,0.228982357537,0.954777370061,0.0,0.0,0.0,0.0,0.0,0.0,0.0,0.0,0.0,0.000457,-0.001165,-0.000358,0.0,0.0,0.0,0.0,0.0,0.0,0.0,0.0,0.0,0.047,0.076,-9.707,0.0,0.0,0.0,0.0,0.0,0.0,0.0,0.0,0.0
1581120600270681351,369,1581120600270204067,mag,-0.174923011411,0.0732747817111,0.22945971758,0.95466275954,0.0,0.0,0.0,0.0,0.0,0.0,0.0,0.0,0.0,-0.000367,0.001297,-6.8e-05,0.0,0.0,0.0,0.0,0.0,0.0,0.0,0.0,0.0,-0.008,0.063,-9.701,0.0,0.0,0.0,0.0,0.0,0.0,0.0,0.0,0.0
1581120600295865399,370,1581120600295177936,mag,-0.175363718961,0.0732477337096,0.22901901003,0.954689807541,0.0,0.0,0.0,0.0,0.0,0.0,0.0,0.0,0.0,8.8e-05,0.000969,-0.00011,0.0,0.0,0.0,0.0,0.0,0.0,0.0,0.0,0.0,0.016,0.037,-9.737,0.0,0.0,0.0,0.0,0.0,0.0,0.0,0.0,0.0
1581120600320670654,371,1581120600320195913,mag,-0.174690996978,0.0723999588697,0.228854642843,0.954917197447,0.0,0.0,0.0,0.0,0.0,0.0,0.0,0.0,0.0,0.000299,-0.000832,0.000195,0.0,0.0,0.0,0.0,0.0,0.0,0.0,0.0,0.0,0.034,0.046,-9.715,0.0,0.0,0.0,0.0,0.0,0.0,0.0,0.0,0.0
1581120600346214069,372,1581120600345216035,mag,-0.175302459658,0.0726789950608,0.229432292047,0.954645292599,0.0,0.0,0.0,0.0,0.0,0.0,0.0,0.0,0.0,-0.000607,-0.000225,-0.000184,0.0,0.0,0.0,0.0,0.0,0.0,0.0,0.0,0.0,0.023,0.047,-9.72,0.0,0.0,0.0,0.0,0.0,0.0,0.0,0.0,0.0
1581120600370782488,373,1581120600370178937,mag,-0.174727175119,0.0723126043249,0.229332072815,0.954802650766,0.0,0.0,0.0,0.0,0.0,0.0,0.0,0.0,0.0,-3.1e-05,-0.000735,0.000102,0.0,0.0,0.0,0.0,0.0,0.0,0.0,0.0,0.0,0.038,0.057,-9.738,0.0,0.0,0.0,0.0,0.0,0.0,0.0,0.0,0.0
1581120600395621209,374,1581120600395122051,mag,-0.174763309579,0.0722252317019,0.229809445454,0.954687865384,0.0,0.0,0.0,0.0,0.0,0.0,0.0,0.0,0.0,0.000585,-0.001025,0.000451,0.0,0.0,0.0,0.0,0.0,0.0,0.0,0.0,0.0,0.052,0.056,-9.699,0.0,0.0,0.0,0.0,0.0,0.0,0.0,0.0,0.0
1581120600420554776,375,1581120600420058965,mag,-0.174799400348,0.0721378410226,0.230286760641,0.95457284133,0.0,0.0,0.0,0.0,0.0,0.0,0.0,0.0,0.0,-0.0001,-0.000874,0.000379,0.0,0.0,0.0,0.0,0.0,0.0,0.0,0.0,0.0,0.022,0.039,-9.738,0.0,0.0,0.0,0.0,0.0,0.0,0.0,0.0,0.0
1581120600446327129,376,1581120600445888996,mag,-0.174673515653,0.0710011498299,0.231113622211,0.954481269214,0.0,0.0,0.0,0.0,0.0,0.0,0.0,0.0,0.0,-0.000809,-0.000875,-0.000405,0.0,0.0,0.0,0.0,0.0,0.0,0.0,0.0,0.0,0.058,0.044,-9.756,0.0,0.0,0.0,0.0,0.0,0.0,0.0,0.0,0.0
1581120600470767301,377,1581120600470272064,mag,-0.17490741042,0.0718755608653,0.231718360293,0.954226337424,0.0,0.0,0.0,0.0,0.0,0.0,0.0,0.0,0.0,-0.000519,0.000406,0.00066,0.0,0.0,0.0,0.0,0.0,0.0,0.0,0.0,0.0,0.049,0.053,-9.728,0.0,0.0,0.0,0.0,0.0,0.0,0.0,0.0,0.0
1581120600495809182,378,1581120600495085000,mag,-0.175078821753,0.0721813696026,0.232736076887,0.953924092667,0.0,0.0,0.0,0.0,0.0,0.0,0.0,0.0,0.0,-0.000199,-0.000456,-2.9e-05,0.0,0.0,0.0,0.0,0.0,0.0,0.0,0.0,0.0,0.042,0.058,-9.755,0.0,0.0,0.0,0.0,0.0,0.0,0.0,0.0,0.0
1581120600521519857,379,1581120600520886898,mag,-0.174565667154,0.0723850204916,0.232222922287,0.954127743556,0.0,0.0,0.0,0.0,0.0,0.0,0.0,0.0,0.0,-0.000232,-0.000248,0.000978,0.0,0.0,0.0,0.0,0.0,0.0,0.0,0.0,0.0,0.038,0.053,-9.674,0.0,0.0,0.0,0.0,0.0,0.0,0.0,0.0,0.0
1581120600545597837,380,1581120600545088052,mag,-0.174637964879,0.072210418661,0.23317693376,0.953895043609,0.0,0.0,0.0,0.0,0.0,0.0,0.0,0.0,0.0,-0.000441,-7.2e-05,-0.000651,0.0,0.0,0.0,0.0,0.0,0.0,0.0,0.0,0.0,0.034,0.066,-9.736,0.0,0.0,0.0,0.0,0.0,0.0,0.0,0.0,0.0
1581120600571259433,381,1581120600570764064,mag,-0.174601837842,0.0722977286135,0.232699957111,0.954011512834,0.0,0.0,0.0,0.0,0.0,0.0,0.0,0.0,0.0,-0.00057,-0.000899,-0.000454,0.0,0.0,0.0,0.0,0.0,0.0,0.0,0.0,0.0,0.049,0.069,-9.711,0.0,0.0,0.0,0.0,0.0,0.0,0.0,0.0,0.0
1581120600596368028,382,1581120600595729112,mag,-0.174737819849,0.0726911345185,0.233240206349,0.95382477396,0.0,0.0,0.0,0.0,0.0,0.0,0.0,0.0,0.0,0.000266,0.000494,-0.000468,0.0,0.0,0.0,0.0,0.0,0.0,0.0,0.0,0.0,0.041,0.061,-9.721,0.0,0.0,0.0,0.0,0.0,0.0,0.0,0.0,0.0
1581120600621265996,383,1581120600620706081,mag,-0.175114890551,0.0720938211727,0.233213009821,0.953807605393,0.0,0.0,0.0,0.0,0.0,0.0,0.0,0.0,0.0,-0.000221,0.000754,0.000777,0.0,0.0,0.0,0.0,0.0,0.0,0.0,0.0,0.0,0.023,0.054,-9.704,0.0,0.0,0.0,0.0,0.0,0.0,0.0,0.0,0.0
1581120600646395535,384,1581120600645793914,mag,-0.17426088564,0.0728077455305,0.233203831628,0.953912023638,0.0,0.0,0.0,0.0,0.0,0.0,0.0,0.0,0.0,0.000533,0.000766,-4.7e-05,0.0,0.0,0.0,0.0,0.0,0.0,0.0,0.0,0.0,0.039,0.059,-9.762,0.0,0.0,0.0,0.0,0.0,0.0,0.0,0.0,0.0
1581120600671285363,385,1581120600670738935,mag,-0.17412481028,0.07241406955,0.232663779161,0.954098694498,0.0,0.0,0.0,0.0,0.0,0.0,0.0,0.0,0.0,0.000647,-0.000923,1.3e-05,0.0,0.0,0.0,0.0,0.0,0.0,0.0,0.0,0.0,0.042,0.045,-9.693,0.0,0.0,0.0,0.0,0.0,0.0,0.0,0.0,0.0
1581120600696330376,386,1581120600695774078,mag,-0.173548010987,0.0720495454581,0.23256465797,0.954255537445,0.0,0.0,0.0,0.0,0.0,0.0,0.0,0.0,0.0,0.000256,-0.001147,0.000571,0.0,0.0,0.0,0.0,0.0,0.0,0.0,0.0,0.0,0.053,0.025,-9.727,0.0,0.0,0.0,0.0,0.0,0.0,0.0,0.0,0.0
1581120600721501201,387,1581120600720777988,mag,-0.173548010987,0.0720495454581,0.23256465797,0.954255537445,0.0,0.0,0.0,0.0,0.0,0.0,0.0,0.0,0.0,-0.000593,5.7e-05,-0.000605,0.0,0.0,0.0,0.0,0.0,0.0,0.0,0.0,0.0,0.022,0.052,-9.736,0.0,0.0,0.0,0.0,0.0,0.0,0.0,0.0,0.0
1581120600746281125,388,1581120600745654106,mag,-0.173989128664,0.072020257691,0.232123540293,0.954284825212,0.0,0.0,0.0,0.0,0.0,0.0,0.0,0.0,0.0,0.000367,0.000748,-0.000265,0.0,0.0,0.0,0.0,0.0,0.0,0.0,0.0,0.0,0.024,0.058,-9.709,0.0,0.0,0.0,0.0,0.0,0.0,0.0,0.0,0.0
1581120600771454300,389,1581120600770718097,mag,-0.174160995548,0.0723269980967,0.233140799406,0.953982243351,0.0,0.0,0.0,0.0,0.0,0.0,0.0,0.0,0.0,0.000978,7.3e-05,0.000352,0.0,0.0,0.0,0.0,0.0,0.0,0.0,0.0,0.0,0.045,0.061,-9.726,0.0,0.0,0.0,0.0,0.0,0.0,0.0,0.0,0.0
1581120600796359337,390,1581120600795770883,mag,-0.174197137275,0.0722399085617,0.233617761365,0.953865553708,0.0,0.0,0.0,0.0,0.0,0.0,0.0,0.0,0.0,1.1e-05,0.000935,0.000352,0.0,0.0,0.0,0.0,0.0,0.0,0.0,0.0,0.0,0.032,0.038,-9.722,0.0,0.0,0.0,0.0,0.0,0.0,0.0,0.0,0.0
1581120600821074032,391,1581120600820657014,mag,-0.174160995548,0.0723269980967,0.233140799406,0.953982243351,0.0,0.0,0.0,0.0,0.0,0.0,0.0,0.0,0.0,-0.001329,-8e-06,-0.000358,0.0,0.0,0.0,0.0,0.0,0.0,0.0,0.0,0.0,0.042,0.056,-9.709,0.0,0.0,0.0,0.0,0.0,0.0,0.0,0.0,0.0
1581120600846367587,392,1581120600845668077,mag,-0.174710087967,0.07203574462,0.234130712057,0.953661389767,0.0,0.0,0.0,0.0,0.0,0.0,0.0,0.0,0.0,0.000743,0.000578,0.000786,0.0,0.0,0.0,0.0,0.0,0.0,0.0,0.0,0.0,0.036,0.075,-9.724,0.0,0.0,0.0,0.0,0.0,0.0,0.0,0.0,0.0
1581120600871161124,393,1581120600870565891,mag,-0.175222834238,0.0718310678298,0.234643458328,0.953456712976,0.0,0.0,0.0,0.0,0.0,0.0,0.0,0.0,0.0,-0.000496,0.000671,-0.000621,0.0,0.0,0.0,0.0,0.0,0.0,0.0,0.0,0.0,0.05,0.053,-9.727,0.0,0.0,0.0,0.0,0.0,0.0,0.0,0.0,0.0
1581120600896162887,394,1581120600895632028,mag,-0.175114890551,0.0720938211727,0.233213009821,0.953807605393,0.0,0.0,0.0,0.0,0.0,0.0,0.0,0.0,0.0,-0.00055,0.001296,0.000642,0.0,0.0,0.0,0.0,0.0,0.0,0.0,0.0,0.0,0.017,0.028,-9.707,0.0,0.0,0.0,0.0,0.0,0.0,0.0,0.0,0.0
1581120600921039062,395,1581120600920576095,mag,-0.17501502695,0.0716131189881,0.23314943858,0.953877686509,0.0,0.0,0.0,0.0,0.0,0.0,0.0,0.0,0.0,-0.000836,0.000797,0.000555,0.0,0.0,0.0,0.0,0.0,0.0,0.0,0.0,0.0,0.034,0.049,-9.748,0.0,0.0,0.0,0.0,0.0,0.0,0.0,0.0,0.0
1581120600946090386,396,1581120600945529937,mag,-0.175996661846,0.0720366048056,0.232331238527,0.95386482176,0.0,0.0,0.0,0.0,0.0,0.0,0.0,0.0,0.0,-0.001541,0.000734,0.000157,0.0,0.0,0.0,0.0,0.0,0.0,0.0,0.0,0.0,0.036,0.049,-9.706,0.0,0.0,0.0,0.0,0.0,0.0,0.0,0.0,0.0
1581120600971238959,397,1581120600970532894,mag,-0.176338552618,0.0715279025952,0.231825912911,0.953962902902,0.0,0.0,0.0,0.0,0.0,0.0,0.0,0.0,0.0,-0.000847,-0.000316,-1.1e-05,0.0,0.0,0.0,0.0,0.0,0.0,0.0,0.0,0.0,0.027,0.076,-9.744,0.0,0.0,0.0,0.0,0.0,0.0,0.0,0.0,0.0
1581120600996179186,398,1581120600995500087,mag,-0.176203925595,0.0711352401805,0.231284412108,0.954148560197,0.0,0.0,0.0,0.0,0.0,0.0,0.0,0.0,0.0,-3.8e-05,0.000927,0.000844,0.0,0.0,0.0,0.0,0.0,0.0,0.0,0.0,0.0,0.029,0.07,-9.741,0.0,0.0,0.0,0.0,0.0,0.0,0.0,0.0,0.0
1581120601020787207,399,1581120601020380020,mag,-0.175797992307,0.0710751110644,0.232202936338,0.954004816992,0.0,0.0,0.0,0.0,0.0,0.0,0.0,0.0,0.0,0.000159,1.4e-05,0.000421,0.0,0.0,0.0,0.0,0.0,0.0,0.0,0.0,0.0,0.032,0.059,-9.741,0.0,0.0,0.0,0.0,0.0,0.0,0.0,0.0,0.0
1581120601046312479,400,1581120601045417070,mag,-0.175868979507,0.0708992775638,0.233156824895,0.953772137092,0.0,0.0,0.0,0.0,0.0,0.0,0.0,0.0,0.0,-5.9e-05,-0.000301,-0.000482,0.0,0.0,0.0,0.0,0.0,0.0,0.0,0.0,0.0,0.051,0.055,-9.734,0.0,0.0,0.0,0.0,0.0,0.0,0.0,0.0,0.0
1581120601071309083,401,1581120601070426940,mag,-0.17640999234,0.0713515283081,0.232779759742,0.953730600047,0.0,0.0,0.0,0.0,0.0,0.0,0.0,0.0,0.0,-0.000181,0.000404,-0.000324,0.0,0.0,0.0,0.0,0.0,0.0,0.0,0.0,0.0,0.036,0.039,-9.72,0.0,0.0,0.0,0.0,0.0,0.0,0.0,0.0,0.0
1581120601096192612,402,1581120601095494985,mag,-0.176445646051,0.0712633143966,0.233256595925,0.953614090955,0.0,0.0,0.0,0.0,0.0,0.0,0.0,0.0,0.0,-0.000157,0.000414,0.000344,0.0,0.0,0.0,0.0,0.0,0.0,0.0,0.0,0.0,0.045,0.061,-9.728,0.0,0.0,0.0,0.0,0.0,0.0,0.0,0.0,0.0
1581120601120987344,403,1581120601120412111,mag,-0.175904407161,0.0708113342153,0.233633681799,0.953655439463,0.0,0.0,0.0,0.0,0.0,0.0,0.0,0.0,0.0,0.000676,-0.000366,0.000329,0.0,0.0,0.0,0.0,0.0,0.0,0.0,0.0,0.0,0.025,0.05,-9.723,0.0,0.0,0.0,0.0,0.0,0.0,0.0,0.0,0.0
1581120601145975254,404,1581120601145364046,mag,-0.17596881697,0.0713799337818,0.233220935112,0.953702194573,0.0,0.0,0.0,0.0,0.0,0.0,0.0,0.0,0.0,-3.1e-05,0.00058,-0.000771,0.0,0.0,0.0,0.0,0.0,0.0,0.0,0.0,0.0,0.034,0.054,-9.759,0.0,0.0,0.0,0.0,0.0,0.0,0.0,0.0,0.0
1581120601171080579,405,1581120601170397043,mag,-0.175933105008,0.0714679092641,0.232744054882,0.953818685823,0.0,0.0,0.0,0.0,0.0,0.0,0.0,0.0,0.0,-0.000386,0.001103,-0.000305,0.0,0.0,0.0,0.0,0.0,0.0,0.0,0.0,0.0,0.032,0.051,-9.741,0.0,0.0,0.0,0.0,0.0,0.0,0.0,0.0,0.0
1581120601196067546,406,1581120601195346117,mag,-0.175356541629,0.0711035342641,0.232644387016,0.953976393792,0.0,0.0,0.0,0.0,0.0,0.0,0.0,0.0,0.0,-0.000572,-0.00087,0.000196,0.0,0.0,0.0,0.0,0.0,0.0,0.0,0.0,0.0,0.05,0.045,-9.695,0.0,0.0,0.0,0.0,0.0,0.0,0.0,0.0,0.0
1581120601220958348,407,1581120601220340967,mag,-0.175285350428,0.0712788552247,0.231690294459,0.954208561152,0.0,0.0,0.0,0.0,0.0,0.0,0.0,0.0,0.0,-7.4e-05,-0.001454,-0.000754,0.0,0.0,0.0,0.0,0.0,0.0,0.0,0.0,0.0,0.036,0.036,-9.743,0.0,0.0,0.0,0.0,0.0,0.0,0.0,0.0,0.0
1581120601245826239,408,1581120601245300054,mag,-0.1743942579,0.0720786171913,0.231205207773,0.95442939375,0.0,0.0,0.0,0.0,0.0,0.0,0.0,0.0,0.0,-0.000168,0.000489,-0.000331,0.0,0.0,0.0,0.0,0.0,0.0,0.0,0.0,0.0,0.059,0.084,-9.697,0.0,0.0,0.0,0.0,0.0,0.0,0.0,0.0,0.0
1581120601270815071,409,1581120601270298957,mag,-0.174799400348,0.0721378410226,0.230286760641,0.95457284133,0.0,0.0,0.0,0.0,0.0,0.0,0.0,0.0,0.0,6.2e-05,-0.000637,8.3e-05,0.0,0.0,0.0,0.0,0.0,0.0,0.0,0.0,0.0,0.04,0.049,-9.753,0.0,0.0,0.0,0.0,0.0,0.0,0.0,0.0,0.0
1581120601295774628,410,1581120601295299053,mag,-0.17516843372,0.0722855225031,0.228890814214,0.954829732587,0.0,0.0,0.0,0.0,0.0,0.0,0.0,0.0,0.0,-0.000481,0.001189,0.0004,0.0,0.0,0.0,0.0,0.0,0.0,0.0,0.0,0.0,0.028,0.045,-9.741,0.0,0.0,0.0,0.0,0.0,0.0,0.0,0.0,0.0
1581120601320771756,411,1581120601320314884,mag,-0.174998833487,0.0719794245267,0.227871616873,0.955127686201,0.0,0.0,0.0,0.0,0.0,0.0,0.0,0.0,0.0,0.000368,-0.000143,-0.000817,0.0,0.0,0.0,0.0,0.0,0.0,0.0,0.0,0.0,0.051,0.043,-9.726,0.0,0.0,0.0,0.0,0.0,0.0,0.0,0.0,0.0
1581120601346243325,412,1581120601345350980,mag,-0.17611176567,0.0728018953678,0.227595459551,0.954926613314,0.0,0.0,0.0,0.0,0.0,0.0,0.0,0.0,0.0,-0.000974,0.000313,-0.000384,0.0,0.0,0.0,0.0,0.0,0.0,0.0,0.0,0.0,0.033,0.072,-9.683,0.0,0.0,0.0,0.0,0.0,0.0,0.0,0.0,0.0
1581120601371270277,413,1581120601370287895,mag,-0.17607534271,0.0728899421467,0.227117967815,0.955040291673,0.0,0.0,0.0,0.0,0.0,0.0,0.0,0.0,0.0,0.000313,0.00062,-0.000983,0.0,0.0,0.0,0.0,0.0,0.0,0.0,0.0,0.0,0.037,0.043,-9.707,0.0,0.0,0.0,0.0,0.0,0.0,0.0,0.0,0.0
1581120601395894004,414,1581120601395190000,mag,-0.17556127688,0.0730912817859,0.226603901985,0.955241631312,0.0,0.0,0.0,0.0,0.0,0.0,0.0,0.0,0.0,0.000266,0.000152,-0.000427,0.0,0.0,0.0,0.0,0.0,0.0,0.0,0.0,0.0,0.032,0.054,-9.732,0.0,0.0,0.0,0.0,0.0,0.0,0.0,0.0,0.0
1581120601420719405,415,1581120601420219898,mag,-0.176002364742,0.0730659810151,0.226162814124,0.955266932083,0.0,0.0,0.0,0.0,0.0,0.0,0.0,0.0,0.0,-0.000159,-7.6e-05,0.001634,0.0,0.0,0.0,0.0,0.0,0.0,0.0,0.0,0.0,0.062,0.064,-9.711,0.0,0.0,0.0,0.0,0.0,0.0,0.0,0.0,0.0
1581120601446106197,416,1581120601445244073,mag,-0.175965809753,0.0731539730606,0.225685152407,0.955379894077,0.0,0.0,0.0,0.0,0.0,0.0,0.0,0.0,0.0,-0.000483,-0.000246,0.001165,0.0,0.0,0.0,0.0,0.0,0.0,0.0,0.0,0.0,0.035,0.056,-9.714,0.0,0.0,0.0,0.0,0.0,0.0,0.0,0.0,0.0
1581120601470710599,417,1581120601470191955,mag,-0.175965809753,0.0731539730606,0.225685152407,0.955379894077,0.0,0.0,0.0,0.0,0.0,0.0,0.0,0.0,0.0,0.000346,-0.000928,-0.0002,0.0,0.0,0.0,0.0,0.0,0.0,0.0,0.0,0.0,0.047,0.058,-9.729,0.0,0.0,0.0,0.0,0.0,0.0,0.0,0.0,0.0
1581120601495756290,418,1581120601495208024,mag,-0.176576048231,0.0734341807233,0.226264320096,0.955108777964,0.0,0.0,0.0,0.0,0.0,0.0,0.0,0.0,0.0,-0.000365,0.000269,0.000156,0.0,0.0,0.0,0.0,0.0,0.0,0.0,0.0,0.0,0.028,0.027,-9.73,0.0,0.0,0.0,0.0,0.0,0.0,0.0,0.0,0.0
1581120601520803900,419,1581120601520119905,mag,-0.176002364742,0.0730659810151,0.226162814124,0.955266932083,0.0,0.0,0.0,0.0,0.0,0.0,0.0,0.0,0.0,0.000228,-0.001226,-0.000848,0.0,0.0,0.0,0.0,0.0,0.0,0.0,0.0,0.0,0.038,0.063,-9.73,0.0,0.0,0.0,0.0,0.0,0.0,0.0,0.0,0.0
1581120601545783876,420,1581120601545120000,mag,-0.176002364742,0.0730659810151,0.226162814124,0.955266932083,0.0,0.0,0.0,0.0,0.0,0.0,0.0,0.0,0.0,0.000634,-0.000515,0.001218,0.0,0.0,0.0,0.0,0.0,0.0,0.0,0.0,0.0,0.061,0.075,-9.713,0.0,0.0,0.0,0.0,0.0,0.0,0.0,0.0,0.0
1581120601570691229,421,1581120601570099115,mag,-0.175929210772,0.0732419468175,0.225207434269,0.955492617226,0.0,0.0,0.0,0.0,0.0,0.0,0.0,0.0,0.0,0.000177,-0.000193,-0.000528,0.0,0.0,0.0,0.0,0.0,0.0,0.0,0.0,0.0,0.027,0.054,-9.724,0.0,0.0,0.0,0.0,0.0,0.0,0.0,0.0,0.0
1581120601595749862,422,1581120601595097064,mag,-0.175892567809,0.073329902264,0.22472965983,0.955605101502,0.0,0.0,0.0,0.0,0.0,0.0,0.0,0.0,0.0,6.8e-05,9.2e-05,-0.000845,0.0,0.0,0.0,0.0,0.0,0.0,0.0,0.0,0.0,0.041,0.057,-9.771,0.0,0.0,0.0,0.0,0.0,0.0,0.0,0.0,0.0
1581120601621744742,423,1581120601620912075,mag,-0.17579713888,0.0728484176283,0.224664738141,0.955674750868,0.0,0.0,0.0,0.0,0.0,0.0,0.0,0.0,0.0,0.000399,0.000326,-0.00036,0.0,0.0,0.0,0.0,0.0,0.0,0.0,0.0,0.0,0.031,0.061,-9.723,0.0,0.0,0.0,0.0,0.0,0.0,0.0,0.0,0.0
1581120601646335397,424,1581120601645798921,mag,-0.17579713888,0.0728484176283,0.224664738141,0.955674750868,0.0,0.0,0.0,0.0,0.0,0.0,0.0,0.0,0.0,0.000555,-0.000319,0.001137,0.0,0.0,0.0,0.0,0.0,0.0,0.0,0.0,0.0,0.033,0.06,-9.727,0.0,0.0,0.0,0.0,0.0,0.0,0.0,0.0,0.0
1581120601671489284,425,1581120601670775890,mag,-0.175760692698,0.072936307088,0.224186872703,0.955786963773,0.0,0.0,0.0,0.0,0.0,0.0,0.0,0.0,0.0,-0.000428,-0.000232,0.000147,0.0,0.0,0.0,0.0,0.0,0.0,0.0,0.0,0.0,0.025,0.067,-9.716,0.0,0.0,0.0,0.0,0.0,0.0,0.0,0.0,0.0
1581120601695375004,426,1581120601694926977,mag,-0.175282777266,0.0730483914026,0.224150376527,0.955874724642,0.0,0.0,0.0,0.0,0.0,0.0,0.0,0.0,0.0,0.000678,-0.00011,0.000819,0.0,0.0,0.0,0.0,0.0,0.0,0.0,0.0,0.0,0.025,0.058,-9.694,0.0,0.0,0.0,0.0,0.0,0.0,0.0,0.0,0.0
1581120601721355601,427,1581120601720839977,mag,-0.174673155309,0.0727661878291,0.223571249595,0.956143434364,0.0,0.0,0.0,0.0,0.0,0.0,0.0,0.0,0.0,-0.000656,-0.000628,0.000395,0.0,0.0,0.0,0.0,0.0,0.0,0.0,0.0,0.0,0.042,0.06,-9.703,0.0,0.0,0.0,0.0,0.0,0.0,0.0,0.0,0.0
1581120601746617301,428,1581120601745863914,mag,-0.175173007527,0.0733112332905,0.222716312809,0.956209874722,0.0,0.0,0.0,0.0,0.0,0.0,0.0,0.0,0.0,-0.000443,-7.3e-05,0.000189,0.0,0.0,0.0,0.0,0.0,0.0,0.0,0.0,0.0,0.055,0.063,-9.709,0.0,0.0,0.0,0.0,0.0,0.0,0.0,0.0,0.0
1581120601771413479,429,1581120601770797967,mag,-0.175483774926,0.0728936933369,0.221731521406,0.95641365874,0.0,0.0,0.0,0.0,0.0,0.0,0.0,0.0,0.0,0.000399,-0.000137,0.000222,0.0,0.0,0.0,0.0,0.0,0.0,0.0,0.0,0.0,0.016,0.053,-9.74,0.0,0.0,0.0,0.0,0.0,0.0,0.0,0.0,0.0
1581120601796464369,430,1581120601795732021,mag,-0.176034654625,0.0726068201472,0.222724155288,0.956103551238,0.0,0.0,0.0,0.0,0.0,0.0,0.0,0.0,0.0,-0.000247,0.000478,-0.000223,0.0,0.0,0.0,0.0,0.0,0.0,0.0,0.0,0.0,0.018,0.046,-9.719,0.0,0.0,0.0,0.0,0.0,0.0,0.0,0.0,0.0
1581120601821169588,431,1581120601820679903,mag,-0.1759619598,0.0727828184691,0.221767940534,0.956325797305,0.0,0.0,0.0,0.0,0.0,0.0,0.0,0.0,0.0,-0.000149,-0.000393,-0.001207,0.0,0.0,0.0,0.0,0.0,0.0,0.0,0.0,0.0,0.055,0.051,-9.694,0.0,0.0,0.0,0.0,0.0,0.0,0.0,0.0,0.0
1581120601846227749,432,1581120601845721960,mag,-0.176554250258,0.0738119415892,0.220979374201,0.956320296853,0.0,0.0,0.0,0.0,0.0,0.0,0.0,0.0,0.0,-0.001244,-0.000378,-0.000706,0.0,0.0,0.0,0.0,0.0,0.0,0.0,0.0,0.0,0.036,0.055,-9.729,0.0,0.0,0.0,0.0,0.0,0.0,0.0,0.0,0.0
1581120601871163733,433,1581120601870702981,mag,-0.176534059363,0.0731536470782,0.221869971769,0.956168387593,0.0,0.0,0.0,0.0,0.0,0.0,0.0,0.0,0.0,0.000607,0.000112,0.000192,0.0,0.0,0.0,0.0,0.0,0.0,0.0,0.0,0.0,0.023,0.051,-9.756,0.0,0.0,0.0,0.0,0.0,0.0,0.0,0.0,0.0
1581120601896335258,434,1581120601895715951,mag,-0.176607124731,0.0729770764715,0.222826029062,0.955946039574,0.0,0.0,0.0,0.0,0.0,0.0,0.0,0.0,0.0,-0.000241,0.000155,3.2e-05,0.0,0.0,0.0,0.0,0.0,0.0,0.0,0.0,0.0,0.043,0.047,-9.734,0.0,0.0,0.0,0.0,0.0,0.0,0.0,0.0,0.0
1581120601921304018,435,1581120601920639038,mag,-0.176143366776,0.0723426865816,0.224158059513,0.955768389514,0.0,0.0,0.0,0.0,0.0,0.0,0.0,0.0,0.0,0.000123,0.00108,0.000758,0.0,0.0,0.0,0.0,0.0,0.0,0.0,0.0,0.0,0.032,0.07,-9.731,0.0,0.0,0.0,0.0,0.0,0.0,0.0,0.0,0.0
1581120601946316149,436,1581120601945578098,mag,-0.176107173416,0.0724307492185,0.223680147318,0.955880349068,0.0,0.0,0.0,0.0,0.0,0.0,0.0,0.0,0.0,0.000734,-0.001303,-0.000103,0.0,0.0,0.0,0.0,0.0,0.0,0.0,0.0,0.0,0.05,0.034,-9.731,0.0,0.0,0.0,0.0,0.0,0.0,0.0,0.0,0.0
1581120601971154084,437,1581120601970638990,mag,-0.175187510474,0.0725668084325,0.224085604759,0.955944054968,0.0,0.0,0.0,0.0,0.0,0.0,0.0,0.0,0.0,-0.000496,-0.000199,0.000239,0.0,0.0,0.0,0.0,0.0,0.0,0.0,0.0,0.0,0.042,0.055,-9.736,0.0,0.0,0.0,0.0,0.0,0.0,0.0,0.0,0.0
1581120601996309502,438,1581120601995687961,mag,-0.174863232869,0.0737294952899,0.22370032489,0.956004694528,0.0,0.0,0.0,0.0,0.0,0.0,0.0,0.0,0.0,0.001662,-0.000203,-0.000279,0.0,0.0,0.0,0.0,0.0,0.0,0.0,0.0,0.0,0.048,0.044,-9.7,0.0,0.0,0.0,0.0,0.0,0.0,0.0,0.0,0.0
1581120602021472969,439,1581120602020541906,mag,-0.174768215935,0.0732478507155,0.223635815197,0.956074183955,0.0,0.0,0.0,0.0,0.0,0.0,0.0,0.0,0.0,3.8e-05,-0.000499,0.000296,0.0,0.0,0.0,0.0,0.0,0.0,0.0,0.0,0.0,0.057,0.053,-9.734,0.0,0.0,0.0,0.0,0.0,0.0,0.0,0.0,0.0
1581120602046401326,440,1581120602045507907,mag,-0.174694880713,0.0734225822784,0.222679629354,0.956297341696,0.0,0.0,0.0,0.0,0.0,0.0,0.0,0.0,0.0,-0.000284,-0.000139,-0.000189,0.0,0.0,0.0,0.0,0.0,0.0,0.0,0.0,0.0,0.025,0.042,-9.717,0.0,0.0,0.0,0.0,0.0,0.0,0.0,0.0,0.0
1581120602071056344,441,1581120602070574998,mag,-0.174563809561,0.0730281156019,0.222136783464,0.956477715452,0.0,0.0,0.0,0.0,0.0,0.0,0.0,0.0,0.0,-1e-05,9.4e-05,-0.000851,0.0,0.0,0.0,0.0,0.0,0.0,0.0,0.0,0.0,0.043,0.04,-9.72,0.0,0.0,0.0,0.0,0.0,0.0,0.0,0.0,0.0
1581120602096207380,442,1581120602095458030,mag,-0.174122096728,0.0730521229472,0.222578496297,0.956453708106,0.0,0.0,0.0,0.0,0.0,0.0,0.0,0.0,0.0,-0.000177,0.000247,0.000128,0.0,0.0,0.0,0.0,0.0,0.0,0.0,0.0,0.0,0.05,0.059,-9.72,0.0,0.0,0.0,0.0,0.0,0.0,0.0,0.0,0.0
1581120602121084344,443,1581120602120536088,mag,-0.174600301797,0.0729408245722,0.222614994534,0.956366527505,0.0,0.0,0.0,0.0,0.0,0.0,0.0,0.0,0.0,-0.000406,5.2e-05,0.000375,0.0,0.0,0.0,0.0,0.0,0.0,0.0,0.0,0.0,0.061,0.065,-9.714,0.0,0.0,0.0,0.0,0.0,0.0,0.0,0.0,0.0
1581120602146068623,444,1581120602145507097,mag,-0.174600301797,0.0729408245722,0.222614994534,0.956366527505,0.0,0.0,0.0,0.0,0.0,0.0,0.0,0.0,0.0,-5.1e-05,-0.000576,-0.000556,0.0,0.0,0.0,0.0,0.0,0.0,0.0,0.0,0.0,0.042,0.064,-9.704,0.0,0.0,0.0,0.0,0.0,0.0,0.0,0.0,0.0
1581120602170955792,445,1581120602170465946,mag,-0.175209641245,0.0732236376265,0.223194389887,0.956098397044,0.0,0.0,0.0,0.0,0.0,0.0,0.0,0.0,0.0,-0.000841,-0.000364,0.000435,0.0,0.0,0.0,0.0,0.0,0.0,0.0,0.0,0.0,0.049,0.066,-9.736,0.0,0.0,0.0,0.0,0.0,0.0,0.0,0.0,0.0
1581120602196501058,446,1581120602195420026,mag,-0.174253455403,0.0734467953674,0.223121054664,0.956273128607,0.0,0.0,0.0,0.0,0.0,0.0,0.0,0.0,0.0,0.001186,-0.000109,2.2e-05,0.0,0.0,0.0,0.0,0.0,0.0,0.0,0.0,0.0,0.028,0.079,-9.718,0.0,0.0,0.0,0.0,0.0,0.0,0.0,0.0,0.0
1581120602221140651,447,1581120602220357894,mag,-0.174694880713,0.0734225822784,0.222679629354,0.956297341696,0.0,0.0,0.0,0.0,0.0,0.0,0.0,0.0,0.0,0.000256,0.000434,0.000109,0.0,0.0,0.0,0.0,0.0,0.0,0.0,0.0,0.0,0.029,0.061,-9.742,0.0,0.0,0.0,0.0,0.0,0.0,0.0,0.0,0.0
1581120602245872655,448,1581120602245309114,mag,-0.174658147586,0.0735099205373,0.222201452868,0.956408561969,0.0,0.0,0.0,0.0,0.0,0.0,0.0,0.0,0.0,-0.000793,-0.000475,-0.000119,0.0,0.0,0.0,0.0,0.0,0.0,0.0,0.0,0.0,0.051,0.056,-9.76,0.0,0.0,0.0,0.0,0.0,0.0,0.0,0.0,0.0
1581120602271469005,449,1581120602270402908,mag,-0.174405806532,0.0744974375664,0.222771511098,0.956245575303,0.0,0.0,0.0,0.0,0.0,0.0,0.0,0.0,0.0,0.00079,0.000462,-0.000288,0.0,0.0,0.0,0.0,0.0,0.0,0.0,0.0,0.0,0.064,0.069,-9.766,0.0,0.0,0.0,0.0,0.0,0.0,0.0,0.0,0.0
1581120602295995777,450,1581120602295434951,mag,-0.174331221904,0.0746718060952,0.221815154296,0.956467868655,0.0,0.0,0.0,0.0,0.0,0.0,0.0,0.0,0.0,-5.7e-05,7.6e-05,0.000137,0.0,0.0,0.0,0.0,0.0,0.0,0.0,0.0,0.0,0.039,0.059,-9.747,0.0,0.0,0.0,0.0,0.0,0.0,0.0,0.0,0.0
1581120602320973383,451,1581120602320327043,mag,-0.17471542425,0.0740790740636,0.221787869375,0.956450182871,0.0,0.0,0.0,0.0,0.0,0.0,0.0,0.0,0.0,-0.000169,0.000961,-0.000689,0.0,0.0,0.0,0.0,0.0,0.0,0.0,0.0,0.0,0.019,0.076,-9.699,0.0,0.0,0.0,0.0,0.0,0.0,0.0,0.0,0.0
1581120602346282711,452,1581120602345487117,mag,-0.174789415954,0.0739043216289,0.222744208504,0.956227916813,0.0,0.0,0.0,0.0,0.0,0.0,0.0,0.0,0.0,-5.8e-05,-0.000702,0.001646,0.0,0.0,0.0,0.0,0.0,0.0,0.0,0.0,0.0,0.044,0.061,-9.723,0.0,0.0,0.0,0.0,0.0,0.0,0.0,0.0,0.0
1581120602371327590,453,1581120602370372056,mag,-0.17471542425,0.0740790740636,0.221787869375,0.956450182871,0.0,0.0,0.0,0.0,0.0,0.0,0.0,0.0,0.0,-0.000245,-0.00027,-0.001087,0.0,0.0,0.0,0.0,0.0,0.0,0.0,0.0,0.0,0.039,0.045,-9.757,0.0,0.0,0.0,0.0,0.0,0.0,0.0,0.0,0.0
1581120602396170682,454,1581120602395386934,mag,-0.174274250538,0.074102830875,0.222229043088,0.956426426059,0.0,0.0,0.0,0.0,0.0,0.0,0.0,0.0,0.0,-0.000371,-0.000519,-0.000662,0.0,0.0,0.0,0.0,0.0,0.0,0.0,0.0,0.0,0.043,0.041,-9.713,0.0,0.0,0.0,0.0,0.0,0.0,0.0,0.0,0.0
1581120602420856561,455,1581120602420342922,mag,-0.174789415954,0.0739043216289,0.222744208504,0.956227916813,0.0,0.0,0.0,0.0,0.0,0.0,0.0,0.0,0.0,0.000256,0.000371,-0.00071,0.0,0.0,0.0,0.0,0.0,0.0,0.0,0.0,0.0,-0.002,0.043,-9.707,0.0,0.0,0.0,0.0,0.0,0.0,0.0,0.0,0.0
1581120602446087086,456,1581120602445275068,mag,-0.174789415954,0.0739043216289,0.222744208504,0.956227916813,0.0,0.0,0.0,0.0,0.0,0.0,0.0,0.0,0.0,-7.8e-05,0.000428,-0.000392,0.0,0.0,0.0,0.0,0.0,0.0,0.0,0.0,0.0,0.016,0.092,-9.737,0.0,0.0,0.0,0.0,0.0,0.0,0.0,0.0,0.0
1581120602471017351,457,1581120602470288991,mag,-0.175230589667,0.0738805648175,0.222303034792,0.956251673624,0.0,0.0,0.0,0.0,0.0,0.0,0.0,0.0,0.0,-0.000509,0.00022,0.000262,0.0,0.0,0.0,0.0,0.0,0.0,0.0,0.0,0.0,0.057,0.047,-9.754,0.0,0.0,0.0,0.0,0.0,0.0,0.0,0.0,0.0
